submission_id,age,comments,correct_response,education,experiment_duration,experiment_end_time,experiment_start_time,gender,languages,responseTime,settingName,trialNr,trial_type,itemName,answer,response_option,option_category,category,vignette_start,vignette_continuation,question,taciturn,answer_template,itemQuestion,competitor,sameCategory,otherCategory,character_template
4664,51,thanks,main,Higher degree,451527,1672169690783,1672169239256,male,English,97448,books,3,main,books-romance,"""Sorry, I don't have them at the moment, though I do have books of French love letters if you are interested""",French love letters,competitor,competitor,You are at a bookshop in a small town. The shop currently has,\n\nA student walks in and asks the cashier:,Do you have a book of love poems?,"I’m sorry, we don’t have love poems.",We sell *.,love poems,books of French love letters,historical dramas,mystery novels,The cashier replies:
4657,62,Nothing to add.,main,Graduated College,307308,1672168785168,1672168477860,male,English,47628,friendsActivities,2,main,friendsActivities-videoEntertainment,"Afraid not, but i've prepared some movies and games for us all.",movie,competitor,competitor,"You are at a casual Saturday night get together with your friends at a friend’s house. For activities, the friend prepared",\n\nOne friend asks the host:,Do you have Netflix?,"I'm sorry, I don't have Netflix.",I have *.,Netflix,some movies,Xbox games,Monopoly,The host replies:
4625,40,NA,main,Graduated College,106425,1672165773127,1672165666702,female,English,21573,interior,5,main,interior-green,ah sorry I don't but I have an agave plant you could have?,agave,competitor,competitor,Your aunt likes to decorate the house and often crafts decorations herself. She often gives away crafts and plants to friends and family. Your aunt currently has,\n\nA friend just moved and wants to get something to decorate her new apartment. She visits your aunt and asks her:,Do you have an aloe vera plant?,"I'm sorry, I don’t have an aloe vera.",I have *.,an aloe vera plant,an agave plant,tulips,an oil painting,Your aunt replies:
4745,32,NA,main,Higher degree,1448945,1672241577263,1672240128318,male,English,1076593,bar,2,main,bar-whiteWine,Apologies we don't have Sauvignon Blanc but if you like a glass of white wine we have Chardonnay in our bar.,Chardonnay,competitor,competitor,You are at a hotel bar. The bar serves only,\n\nA woman walks in. She says to the bartender:,Do you have Sauvignon Blanc?,"I'm sorry, we don't have Sauvignon Blanc today.",We have *.,Sauvignon Blanc,Chardonnay,craft beer,iced coffee,The bartender replies:
4678,51,all great.,main,Graduated College,366214,1672171954080,1672171587866,female,"English, Estonian",74800,zoo,1,main,zoo-reptiles,"chameleon is probably near to iguanas, let's go and have a look.",iguana,competitor,competitor,You and a group of friends are at the zoo today. You all carefully studied the map of the zoo and saw that there is,\n\nOne friend with an eight-year-old kid arrives late. The kid runs up to one of your friend impatiently and asks:,Can we see the chameleon?,"I'm sorry, they don't have chameleons here.",They have *.,a chameleon,iguanas,turtles,a lion,Your friend replies:
4652,36,NA,main,Graduated High-school,217810,1672168701395,1672168483585,female,"english, welsh",31522,zoo,5,main,zoo-reptiles,do you mean iguanas?,iguana,competitor,competitor,You and a group of friends are at the zoo today. You all carefully studied the map of the zoo and saw that there is,\n\nOne friend with an eight-year-old kid arrives late. The kid runs up to one of your friend impatiently and asks:,Can we see the chameleon?,"I'm sorry, they don't have chameleons here.",They have *.,a chameleon,iguanas,turtles,a lion,Your friend replies:
4620,28,NA,main,Higher degree,231683,1672164906357,1672164674674,female,English,64373,petAdoption,1,main,petAdoption-hamster,"Hello, unfortunately we don’t have any hamsters but we do have gerbils, would you like to have a look?",gerbil,competitor,competitor,You are at an adoption center for rescued animals. Currently there are the following animals at the center:,\n\nA family comes in and asks an employee:,Do you have any hamsters?,"I'm sorry, we don’t have any hamsters.",We have *.,hamsters,gerbils,ferrets,golden retrievers,The employee replies:
4678,51,all great.,main,Graduated College,366214,1672171954080,1672171587866,female,"English, Estonian",74683,waterSport,3,main,waterSport-muscle,"hello, we do have kayaks if you are interested.",kayak,competitor,competitor,You are at a water sports rental agency in a popular tourist region with a large lake for different types of water sports. The agency offers,\n\nA customer calls on the phone and asks the agent:,Do you rent canoes?,"I'm sorry, we don’t rent canoes.",We rent *.,canoes,kayaks,pedal boats,water ski equipment,The agent replies:
4678,51,all great.,main,Graduated College,366214,1672171954080,1672171587866,female,"English, Estonian",44816,gymActivities,4,main,gym-boxing,"hello, we do offer kickboxing classes, are you interested about it?",kickboxing,competitor,competitor,You are at the reception desk of a gym. The gym currently offers,\n\nA woman walks in and asks the receptionist:,Do you offer boxing classes?,"I’m sorry, we don’t have boxing.",We have *.,boxing classes,kickboxing classes,karate classes,pilates,The receptionist replies:
4630,36,NA,main,Graduated College,158740,1672165844403,1672165685663,female,NA,20813,books,2,main,books-romance,"Hmm, not exactly but I have French love letters, would that be any good?",French love letters,competitor,competitor,You are at a bookshop in a small town. The shop currently has,\n\nA student walks in and asks the cashier:,Do you have a book of love poems?,"I’m sorry, we don’t have love poems.",We sell *.,love poems,books of French love letters,historical dramas,mystery novels,The cashier replies:
4667,34,thanks,main,Did not graduate High-school,150388,1672171729239,1672171578851,female,english,29850,cafe,4,main,cafe-pie,I  could offer you raspberry pie instead?,raspberry pie,competitor,competitor,You are in a café. Today the café has,\n\nA customer asks the waiter:,Do you have raspberry cake?,"I'm sorry, we don't have raspberry cake today.",We have *.,raspberry cake,raspberry pie,chocolate cookies,cheese pizza,The waiter replies:
4648,31,NA,main,Higher degree,175066,1672168658394,1672168483328,male,"English, Polish",27949,bar,2,main,bar-tea,I am afraid we do not have iced tea. We do have iced coffee.,iced coffee,competitor,competitor,You are a bartender in a hotel bar. The bar serves only,\n\nA woman walks in. She says to the bartender:,Do you have iced tea?,"I'm sorry, we don't have iced tea today.",We have *.,iced tea,iced coffee,soda,Chardonnay,The bartender replies:
4761,41,NA,main,Graduated College,284164,1672244039324,1672243755160,male,english,28676,electronics,2,main,electronics-laptop,I do have a macbook.,MacBook Air,competitor,competitor,You are at a second hand electronics store. The store currently has,\n\nA young man walks in and asks the sales assistant:,Do you have a MacBook Pro?,"I’m sorry, we don’t have a MacBook Pro.",We have *.,a MacBook Pro,a MacBook Air,a desktop computer,an Xbox,The sales assistant replies:
4717,55,NA,main,Higher degree,197577,1672240332052,1672240134475,female,English,42076,interior,3,main,interior-green,"I do not have an aloe vera plant right now, but I do have an agave plant. Would you be interested in that instead?",agave,competitor,competitor,Your aunt likes to decorate the house and often crafts decorations herself. She often gives away crafts and plants to friends and family. Your aunt currently has,\n\nA friend just moved and wants to get something to decorate her new apartment. She visits your aunt and asks her:,Do you have an aloe vera plant?,"I'm sorry, I don’t have an aloe vera.",I have *.,an aloe vera plant,an agave plant,tulips,an oil painting,Your aunt replies:
4667,34,thanks,main,Did not graduate High-school,150388,1672171729239,1672171578851,female,english,38993,friendsActivities,1,main,friendsActivities-boardGames,"I don't but we do have monopoly, would that be ok instead?",Monopoly,competitor,competitor,"You are at a casual Saturday night get together with your friends at a friend’s house. For activities, the friend prepared",\n\nOne friend asks the host:,Do you have Scrabble?,"I'm sorry, I don't have Scrabble.",I have *.,Scrabble,Monopoly,checkers,some movies,The host replies:
4636,34,NA,main,Graduated High-school,327744,1672165996743,1672165668999,male,English,111712,interior,1,main,interior-green,"I don't have an aloe vera plant right now, I do have an agave plant which looks very similar if you want it.",agave,competitor,competitor,Your aunt likes to decorate the house and often crafts decorations herself. She often gives away crafts and plants to friends and family. Your aunt currently has,\n\nA friend just moved and wants to get something to decorate her new apartment. She visits your aunt and asks her:,Do you have an aloe vera plant?,"I'm sorry, I don’t have an aloe vera.",I have *.,an aloe vera plant,an agave plant,tulips,an oil painting,Your aunt replies:
4730,30,NA,main,Higher degree,280125,1672240409731,1672240129606,female,English,48877,interior,3,main,interior-deco,"I don't have anyy water colour paintings, but I do have an oil painting if you'd like to see it?",oil painting,competitor,competitor,Your aunt likes to decorate the house and often crafts decorations herself. She often gives away crafts and plants to friends and family. Your aunt currently has,\n\nA friend just moved and wants to get something to decorate her new apartment. She visits your aunt and asks her:,Do you have watercolour paintings?,"I'm sorry, I don’t have watercolor paintings.",I have *.,watercolor paintings,an oil painting,some printed photographs,an agave plant,Your aunt replies:
4661,70,NA,main,Graduated High-school,355447,1672168857407,1672168501960,female,English,52104,zoo,2,main,zoo-reptiles,I don’t think they have chameleons but we can have a look at the iguanas.,iguana,competitor,competitor,You and a group of friends are at the zoo today. You all carefully studied the map of the zoo and saw that there is,\n\nOne friend with an eight-year-old kid arrives late. The kid runs up to one of your friend impatiently and asks:,Can we see the chameleon?,"I'm sorry, they don't have chameleons here.",They have *.,a chameleon,iguanas,turtles,a lion,Your friend replies:
4704,51,NA,main,Graduated High-school,239915,1672238949713,1672238709798,female,English,69952,books,1,main,books-romance,"I don't think we have books on love poems, but we do have books of French love letters.",French love letters,competitor,competitor,You are at a bookshop in a small town. The shop currently has,\n\nA student walks in and asks the cashier:,Do you have a book of love poems?,"I’m sorry, we don’t have love poems.",We sell *.,love poems,books of French love letters,historical dramas,mystery novels,The cashier replies:
4677,33,an actual enjoyable survey. thanks! :),main,Graduated College,332258,1672171893603,1672171561345,other,English,26030,interior,5,main,interior-deco,"I don't, but I do have an oil painting.",oil painting,competitor,competitor,Your aunt likes to decorate the house and often crafts decorations herself. She often gives away crafts and plants to friends and family. Your aunt currently has,\n\nA friend just moved and wants to get something to decorate her new apartment. She visits your aunt and asks her:,Do you have watercolour paintings?,"I'm sorry, I don’t have watercolor paintings.",I have *.,watercolor paintings,an oil painting,some printed photographs,an agave plant,Your aunt replies:
4699,58,NA,main,Graduated College,369913,1672237275084,1672236905171,female,English,81888,interior,4,main,interior-deco,I dont but would let you have a very nice oil painting now or perhaps paint you a watercolour in the next few weeks.,oil painting,competitor,competitor,Your aunt likes to decorate the house and often crafts decorations herself. She often gives away crafts and plants to friends and family. Your aunt currently has,\n\nA friend just moved and wants to get something to decorate her new apartment. She visits your aunt and asks her:,Do you have watercolour paintings?,"I'm sorry, I don’t have watercolor paintings.",I have *.,watercolor paintings,an oil painting,some printed photographs,an agave plant,Your aunt replies:
4654,53,NA,main,Higher degree,262809,1672168750445,1672168487636,male,English,94978,interior,1,main,interior-deco,I have a lovely oil painting if you want it.,oil painting,competitor,competitor,Your aunt likes to decorate the house and often crafts decorations herself. She often gives away crafts and plants to friends and family. Your aunt currently has,\n\nA friend just moved and wants to get something to decorate her new apartment. She visits your aunt and asks her:,Do you have watercolour paintings?,"I'm sorry, I don’t have watercolor paintings.",I have *.,watercolor paintings,an oil painting,some printed photographs,an agave plant,Your aunt replies:
4611,22,NA,main,Graduated College,108851,1672164802989,1672164694138,female,English,28643,friendsActivities,4,main,friendsActivities-videoEntertainment,"I have some movies we could watch, but they aren't on Netflix.",movie,competitor,competitor,"You are at a casual Saturday night get together with your friends at a friend’s house. For activities, the friend prepared",\n\nOne friend asks the host:,Do you have Netflix?,"I'm sorry, I don't have Netflix.",I have *.,Netflix,some movies,Xbox games,Monopoly,The host replies:
4737,69,NA,main,Graduated College,415692,1672240553259,1672240137567,male,English,100690,books,1,main,books-fantasy,I have some mystery novels which I think you will love.,mystery,competitor,competitor,You are at a bookshop in a small town. The shop currently has,\n\nA student walks in and asks the cashier:,Do you sell psychological thrillers?,"I’m sorry, we don’t sell psychological thrillers.",We sell *.,psychological thrillers,mystery novels,adventure novels,books of French love letters,The cashier replies:
4617,24,NA,main,Graduated College,183518,1672164871173,1672164687655,female,"English, Japanese",34546,friendsActivities,5,main,friendsActivities-videoEntertainment,I haven't got Netflix but I've got some movies we could watch. Take a look and pick out something you like!,movie,competitor,competitor,"You are at a casual Saturday night get together with your friends at a friend’s house. For activities, the friend prepared",\n\nOne friend asks the host:,Do you have Netflix?,"I'm sorry, I don't have Netflix.",I have *.,Netflix,some movies,Xbox games,Monopoly,The host replies:
4743,55,NA,main,Graduated High-school,670232,1672240799995,1672240129763,male,english,130194,petAdoption,3,main,petAdoption-dogs,I'm afraid not but we do have the cutest golden retriever that is looking for a loving home would you like to meet him?,golden retriever,competitor,competitor,You are at an adoption center for rescued animals. Currently there are the following animals at the center:,\n\nA family comes in and asks an employee:,Do you have any Dalmatians?,"I'm sorry, we don’t have any dalmatians.",We have *.,dalmatians,golden retrievers,chihuahuas,gerbils,The employee replies:
4625,40,NA,main,Graduated College,106425,1672165773127,1672165666702,female,English,19911,clothing,2,main,clothing-clothes,I'm afraid we don't but we do have other shorts.,shorts,competitor,competitor,You are at a small designer clothing store. The store currently has the following items in stock:,\n\nA customer comes in and asks the sales assistant:,Do you have any Hawaiian shirts?,"I'm sorry, we don’t have any Hawaiian shirts.",We have *.,Hawaiian shirts,shorts,sweatshirts,necklaces,The sales assistant replies:
4656,62,NA,main,Graduated High-school,305912,1672168784565,1672168478653,female,english,67440,zoo,2,main,zoo-xl,I'm not sure that there is a tiger in this zoo. But there is definitely a lion that we can go to see,lion,competitor,competitor,You and a group of friends are at the zoo today. You all carefully studied the map of the zoo and saw that there is,\n\nOne friend with an eight-year-old kid arrives late. The kid runs up to one of your friend impatiently and asks:,Can we see the tiger?,"I’m sorry, they don’t have a tiger here.",They have *.,a tiger,a lion,a giraffe,iguanas,Your friend replies:
4679,36,NA,main,Graduated High-school,371599,1672171954719,1672171583120,male,English,88536,gymActivities,3,main,gym-yoga,"I'm really sorry, we don't currently offer yoga, what will do is mention it to our manager as other people have also asked about yoga. In the meantime would you like to try a free plates session?",pilates,competitor,competitor,You are at the reception desk of a gym. The gym currently offers,\n\nA woman walks in and asks the receptionist:,Do you offer yoga classes?,"I’m sorry, we don’t have yoga.",We have *.,yoga classes,a pilates class,zumba classes,kickboxing,The receptionist replies:
4710,47,NA,main,Graduated High-school,159101,1672240286434,1672240127333,female,English,34187,bar,2,main,bar-tea,I'm so sorry we don't serve iced tea. I can recommend our iced coffee though.,iced coffee,competitor,competitor,You are a bartender in a hotel bar. The bar serves only,\n\nA woman walks in. She says to the bartender:,Do you have iced tea?,"I'm sorry, we don't have iced tea today.",We have *.,iced tea,iced coffee,soda,Chardonnay,The bartender replies:
4661,70,NA,main,Graduated High-school,355447,1672168857407,1672168501960,female,English,50799,clothing,3,main,clothing-acc,I’m sorry but we do not stock earrings but have a wide choice of necklaces.,necklace,competitor,competitor,You are at a small designer clothing store. The store currently has the following items in stock:,\n\nA customer comes in and asks the sales assistant:,Do you have any earrings?,"I'm sorry, we don’t have any earrings.",We have *.,earrings,necklaces,sunglasses,shorts,The sales assistant replies:
4624,22,NA,main,Higher degree,111973,1672165025747,1672164913774,female,English,26446,zoo,5,main,zoo-reptiles,"I'm sorry honey, there are no chameleons! Would you like to see an iguana instead?",iguana,competitor,competitor,You and a group of friends are at the zoo today. You all carefully studied the map of the zoo and saw that there is,\n\nOne friend with an eight-year-old kid arrives late. The kid runs up to one of your friend impatiently and asks:,Can we see the chameleon?,"I'm sorry, they don't have chameleons here.",They have *.,a chameleon,iguanas,turtles,a lion,Your friend replies:
4727,36,NA,main,Graduated High-school,186614,1672240399192,1672240212578,male,English,35744,interior,4,main,interior-deco,"I'm sorry I don't, but i do have an oil painting",oil painting,competitor,competitor,Your aunt likes to decorate the house and often crafts decorations herself. She often gives away crafts and plants to friends and family. Your aunt currently has,\n\nA friend just moved and wants to get something to decorate her new apartment. She visits your aunt and asks her:,Do you have watercolour paintings?,"I'm sorry, I don’t have watercolor paintings.",I have *.,watercolor paintings,an oil painting,some printed photographs,an agave plant,Your aunt replies:
4680,56,NA,main,Graduated High-school,408270,1672171995137,1672171586867,female,English,31384,clothing,5,main,clothing-acc,I’m sorry I havnt but I do have some necklaces if your interested,necklace,competitor,competitor,You are at a small designer clothing store. The store currently has the following items in stock:,\n\nA customer comes in and asks the sales assistant:,Do you have any earrings?,"I'm sorry, we don’t have any earrings.",We have *.,earrings,necklaces,sunglasses,shorts,The sales assistant replies:
4682,56,Thank you,main,Graduated College,534728,1672172136788,1672171602060,male,English,94080,petAdoption,4,main,petAdoption-hamster,"I’m sorry we don’t at the moment but, we do have gerbils. They’re similar but easier to look after.",gerbil,competitor,competitor,You are at an adoption center for rescued animals. Currently there are the following animals at the center:,\n\nA family comes in and asks an employee:,Do you have any hamsters?,"I'm sorry, we don’t have any hamsters.",We have *.,hamsters,gerbils,ferrets,golden retrievers,The employee replies:
4741,63,All worked fine,main,Graduated High-school,462786,1672240717892,1672240255106,male,English,108372,gymActivities,3,main,gym-yoga,"I'm sorry we don't offer Yoga currently, but our pilates classes are very popular as it is seen as the next big thing. Are you interested in the social or technical aspects?",pilates,competitor,competitor,You are at the reception desk of a gym. The gym currently offers,\n\nA woman walks in and asks the receptionist:,Do you offer yoga classes?,"I’m sorry, we don’t have yoga.",We have *.,yoga classes,a pilates class,zumba classes,kickboxing,The receptionist replies:
4613,30,NA,main,Graduated College,112591,1672164823439,1672164710848,female,English,22371,bar,2,main,bar-tea,"I'm sorry we don't, but we do have iced coffee if that's any good for you?",iced coffee,competitor,competitor,You are a bartender in a hotel bar. The bar serves only,\n\nA woman walks in. She says to the bartender:,Do you have iced tea?,"I'm sorry, we don't have iced tea today.",We have *.,iced tea,iced coffee,soda,Chardonnay,The bartender replies:
4727,36,NA,main,Graduated High-school,186614,1672240399192,1672240212578,male,English,39119,clothing,3,main,clothing-acc,"I'm sorry we don't, we do have necklaces though if you're interested?",necklace,competitor,competitor,You are at a small designer clothing store. The store currently has the following items in stock:,\n\nA customer comes in and asks the sales assistant:,Do you have any earrings?,"I'm sorry, we don’t have any earrings.",We have *.,earrings,necklaces,sunglasses,shorts,The sales assistant replies:
4752,54,NA,main,Graduated High-school,196276,1672243936719,1672243740443,male,English,34584,petAdoption,3,main,petAdoption-hamster,"I'm sorry, no, we don't have any at the moment. Would you consider a gerbil?",gerbil,competitor,competitor,You are at an adoption center for rescued animals. Currently there are the following animals at the center:,\n\nA family comes in and asks an employee:,Do you have any hamsters?,"I'm sorry, we don’t have any hamsters.",We have *.,hamsters,gerbils,ferrets,golden retrievers,The employee replies:
4752,54,NA,main,Graduated High-school,196276,1672243936719,1672243740443,male,English,30548,electronics,2,main,electronics-console,"I'm sorry, no, we don't have one in stock at the moment. Are you interested in an Xbox?",Xbox,competitor,competitor,You are at a second hand electronics store. The store currently has,\n\nA young man walks in and asks the sales assistant:,Do you have a PlayStation?,"I’m sorry, we don’t have a PlayStation.",We have *.,a PlayStation,an Xbox,a Gameboy,a MacBook Air,The sales assistant replies:
4752,54,NA,main,Graduated High-school,196276,1672243936719,1672243740443,male,English,25182,bar,5,main,bar-tea,"I'm sorry, no, we have iced coffee but no iced tea.",iced coffee,competitor,competitor,You are a bartender in a hotel bar. The bar serves only,\n\nA woman walks in. She says to the bartender:,Do you have iced tea?,"I'm sorry, we don't have iced tea today.",We have *.,iced tea,iced coffee,soda,Chardonnay,The bartender replies:
4726,53,NA,main,Graduated College,245193,1672240385441,1672240140248,male,English,40515,bar,1,main,bar-tea,"I'm sorry, we don't but we serve iced coffee",iced coffee,competitor,competitor,You are a bartender in a hotel bar. The bar serves only,\n\nA woman walks in. She says to the bartender:,Do you have iced tea?,"I'm sorry, we don't have iced tea today.",We have *.,iced tea,iced coffee,soda,Chardonnay,The bartender replies:
4623,55,Just to say good luck,main,Higher degree,312976,1672165009891,1672164696915,male,English,29874,gymActivities,5,main,gym-boxing,"I'm sorry, we only have kickboxing",kickboxing,competitor,competitor,You are at the reception desk of a gym. The gym currently offers,\n\nA woman walks in and asks the receptionist:,Do you offer boxing classes?,"I’m sorry, we don’t have boxing.",We have *.,boxing classes,kickboxing classes,karate classes,pilates,The receptionist replies:
4717,55,NA,main,Higher degree,197577,1672240332052,1672240134475,female,English,32617,bar,5,main,bar-whiteWine,I’m sorry.  The only wine was have right now is Chardonnay.  Would you like a glass of that?,Chardonnay,competitor,competitor,You are at a hotel bar. The bar serves only,\n\nA woman walks in. She says to the bartender:,Do you have Sauvignon Blanc?,"I'm sorry, we don't have Sauvignon Blanc today.",We have *.,Sauvignon Blanc,Chardonnay,craft beer,iced coffee,The bartender replies:
4723,32,NA,main,Graduated College,235583,1672240357967,1672240122384,female,English,44331,friendsActivities,5,main,friendsActivities-videoEntertainment,I've got some movies lined up for us to check out,movie,competitor,competitor,"You are at a casual Saturday night get together with your friends at a friend’s house. For activities, the friend prepared",\n\nOne friend asks the host:,Do you have Netflix?,"I'm sorry, I don't have Netflix.",I have *.,Netflix,some movies,Xbox games,Monopoly,The host replies:
4623,55,Just to say good luck,main,Higher degree,312976,1672165009891,1672164696915,male,English,41312,cafe,4,main,cafe-pizza,"If you accept cheese pizza is vegetarian, then yes we do",cheese,competitor,competitor,You are in a café. Today the café has,\n\nA customer asks the waiter:,Do you have veggie pizza?,"I'm sorry, we don't have veggie pizza today.",We have *.,veggie pizza,cheese pizza,pepperoni pizza,raspberry pie,The waiter replies:
4649,41,NA,main,Higher degree,190399,1672168663366,1672168472967,male,english,15345,zoo,4,main,zoo-reptiles,it's an iguana.,iguana,competitor,competitor,You and a group of friends are at the zoo today. You all carefully studied the map of the zoo and saw that there is,\n\nOne friend with an eight-year-old kid arrives late. The kid runs up to one of your friend impatiently and asks:,Can we see the chameleon?,"I'm sorry, they don't have chameleons here.",They have *.,a chameleon,iguanas,turtles,a lion,Your friend replies:
4607,60,NA,main,Graduated College,232254,1672163527107,1672163294853,female,English,61124,interior,5,main,interior-green,No but I do have an agarve plant.,agave,competitor,competitor,Your aunt likes to decorate the house and often crafts decorations herself. She often gives away crafts and plants to friends and family. Your aunt currently has,\n\nA friend just moved and wants to get something to decorate her new apartment. She visits your aunt and asks her:,Do you have an aloe vera plant?,"I'm sorry, I don’t have an aloe vera.",I have *.,an aloe vera plant,an agave plant,tulips,an oil painting,Your aunt replies:
4727,36,NA,main,Graduated High-school,186614,1672240399192,1672240212578,male,English,22433,friendsActivities,5,main,friendsActivities-videoEntertainment,No but I do have some movies,movie,competitor,competitor,"You are at a casual Saturday night get together with your friends at a friend’s house. For activities, the friend prepared",\n\nOne friend asks the host:,Do you have Netflix?,"I'm sorry, I don't have Netflix.",I have *.,Netflix,some movies,Xbox games,Monopoly,The host replies:
4618,29,NA,main,Graduated College,195248,1672164888791,1672164693543,female,English,36281,interior,3,main,interior-green,No but I have an agave plant,agave,competitor,competitor,Your aunt likes to decorate the house and often crafts decorations herself. She often gives away crafts and plants to friends and family. Your aunt currently has,\n\nA friend just moved and wants to get something to decorate her new apartment. She visits your aunt and asks her:,Do you have an aloe vera plant?,"I'm sorry, I don’t have an aloe vera.",I have *.,an aloe vera plant,an agave plant,tulips,an oil painting,Your aunt replies:
4618,29,NA,main,Graduated College,195248,1672164888791,1672164693543,female,English,28609,books,4,main,books-romance,No but I have books of French love letters,French love letters,competitor,competitor,You are at a bookshop in a small town. The shop currently has,\n\nA student walks in and asks the cashier:,Do you have a book of love poems?,"I’m sorry, we don’t have love poems.",We sell *.,love poems,books of French love letters,historical dramas,mystery novels,The cashier replies:
4655,38,NA,main,Higher degree,281556,1672168763309,1672168481753,female,English,42572,interior,2,main,interior-green,No but I have this agave instead- would you like that?,agave,competitor,competitor,Your aunt likes to decorate the house and often crafts decorations herself. She often gives away crafts and plants to friends and family. Your aunt currently has,\n\nA friend just moved and wants to get something to decorate her new apartment. She visits your aunt and asks her:,Do you have an aloe vera plant?,"I'm sorry, I don’t have an aloe vera.",I have *.,an aloe vera plant,an agave plant,tulips,an oil painting,Your aunt replies:
4760,46,NA,main,Graduated High-school,303237,1672244035387,1672243732150,male,English,42894,bar,3,main,bar-whiteWine,No but i hVe a fantastic chardonnay,Chardonnay,competitor,competitor,You are at a hotel bar. The bar serves only,\n\nA woman walks in. She says to the bartender:,Do you have Sauvignon Blanc?,"I'm sorry, we don't have Sauvignon Blanc today.",We have *.,Sauvignon Blanc,Chardonnay,craft beer,iced coffee,The bartender replies:
4760,46,NA,main,Graduated High-school,303237,1672244035387,1672243732150,male,English,48708,gymActivities,4,main,gym-yoga,No but pilates may interest you,pilates,competitor,competitor,You are at the reception desk of a gym. The gym currently offers,\n\nA woman walks in and asks the receptionist:,Do you offer yoga classes?,"I’m sorry, we don’t have yoga.",We have *.,yoga classes,a pilates class,zumba classes,kickboxing,The receptionist replies:
4753,29,NA,main,Graduated College,214327,1672243942307,1672243727980,male,English,31839,touristInfo,4,main,touristInfo-childTheatre,No but there is a circus show happening if you are intrested?,circus,competitor,competitor,You are at a tourist office in a medium-sized tourist town. Today the following events are happening:,\n\nA young woman walks in and asks the consultant:,Is there a theatre performance for children today?,"I'm sorry, there is no theatre performance for children today.",There is *.,a theatre performance for children,a circus show,a trade fare,a club event with a hip hop DJ,The consultant replies:
4700,36,NA,main,Graduated College,361322,1672237280621,1672236919299,female,English,79828,touristInfo,1,main,touristInfo-childTheatre,No but there is a circus show?,circus,competitor,competitor,You are at a tourist office in a medium-sized tourist town. Today the following events are happening:,\n\nA young woman walks in and asks the consultant:,Is there a theatre performance for children today?,"I'm sorry, there is no theatre performance for children today.",There is *.,a theatre performance for children,a circus show,a trade fare,a club event with a hip hop DJ,The consultant replies:
4747,18,NA,main,Graduated High-school,104759,1672243832867,1672243728108,male,english,17488,touristInfo,4,main,touristInfo-clubbing,no but there is with a hip hop DJ,hip hop DJ,competitor,competitor,You are at a tourist office in a medium-sized tourist town. Today the following events are happening:,\n\nA young woman walks in and asks the consultant:,Is there a club event with electronic music today?,"I'm sorry, there is no club event with electronic music today.",There is *.,a club event with electronic music,a club event with a hip hop DJ,live jazz music,a circus show,The consultant replies:
4718,38,NA,main,Graduated High-school,194962,1672240333851,1672240138889,male,English,52845,bookingAgency,1,main,bookingAgency-lowClassAccommodation,No but we do have a cheap bed and breakfast available,bed-and-breakfast,competitor,competitor,You are in a travel booking agency in a medium-sized tourist town. The following types of accommodation are still available for tomorrow night:,\n\nA young man walks in and asks the agent:,Is there a bed in the youth hostel available for tomorrow night?,"I'm sorry, there are no more beds available in the youth hostel available for tomorrow night.",There is *.,a bed in the youth hostel,a room in a cheap bed-and-breakfast,a room in a budget hotel,a suite in a four-star hotel,The agent replies:
4636,34,NA,main,Graduated High-school,327744,1672165996743,1672165668999,male,English,31024,electronics,5,main,electronics-laptop,No but we do have a MacBook Air,MacBook Air,competitor,competitor,You are at a second hand electronics store. The store currently has,\n\nA young man walks in and asks the sales assistant:,Do you have a MacBook Pro?,"I’m sorry, we don’t have a MacBook Pro.",We have *.,a MacBook Pro,a MacBook Air,a desktop computer,an Xbox,The sales assistant replies:
4700,36,NA,main,Graduated College,361322,1672237280621,1672236919299,female,English,54707,electronics,5,main,electronics-laptop,No but we do have a MacBook Air?,MacBook Air,competitor,competitor,You are at a second hand electronics store. The store currently has,\n\nA young man walks in and asks the sales assistant:,Do you have a MacBook Pro?,"I’m sorry, we don’t have a MacBook Pro.",We have *.,a MacBook Pro,a MacBook Air,a desktop computer,an Xbox,The sales assistant replies:
4645,32,NA,main,Graduated High-school,114897,1672168586674,1672168471777,male,English,17965,cafe,2,main,cafe-pie,No but we do have raspberry pie,raspberry pie,competitor,competitor,You are in a café. Today the café has,\n\nA customer asks the waiter:,Do you have raspberry cake?,"I'm sorry, we don't have raspberry cake today.",We have *.,raspberry cake,raspberry pie,chocolate cookies,cheese pizza,The waiter replies:
4641,49,NA,main,Did not graduate High-school,201162,1672166111327,1672165910165,female,English,27774,cafe,4,main,cafe-pie,No but we do have raspberry pie,raspberry pie,competitor,competitor,You are in a café. Today the café has,\n\nA customer asks the waiter:,Do you have raspberry cake?,"I'm sorry, we don't have raspberry cake today.",We have *.,raspberry cake,raspberry pie,chocolate cookies,cheese pizza,The waiter replies:
4645,32,NA,main,Graduated High-school,114897,1672168586674,1672168471777,male,English,27111,waterSport,3,main,waterSport-motor,No but we do have water ski equipment,water ski equipment,competitor,competitor,You are at a water sports rental agency in a popular tourist region with a large lake for different types of water sports. The agency offers,\n\nA customer calls on the phone and asks the agent:,Do you rent jet skis?,"I'm sorry, we don’t rent jet skis.",We rent *.,jet skis,water ski equipment,rubber dinghies,kayaks,The agent replies:
4619,34,NA,main,Graduated High-school,208664,1672164898665,1672164690001,female,British,26526,touristInfo,4,main,touristInfo-childTheatre,No but we have a circus performance,circus,competitor,competitor,You are at a tourist office in a medium-sized tourist town. Today the following events are happening:,\n\nA young woman walks in and asks the consultant:,Is there a theatre performance for children today?,"I'm sorry, there is no theatre performance for children today.",There is *.,a theatre performance for children,a circus show,a trade fare,a club event with a hip hop DJ,The consultant replies:
4755,29,NA,main,Graduated College,219635,1672243949575,1672243729940,female,English,49493,interior,2,main,interior-green,No but we have an agave plant,agave,competitor,competitor,Your aunt likes to decorate the house and often crafts decorations herself. She often gives away crafts and plants to friends and family. Your aunt currently has,\n\nA friend just moved and wants to get something to decorate her new apartment. She visits your aunt and asks her:,Do you have an aloe vera plant?,"I'm sorry, I don’t have an aloe vera.",I have *.,an aloe vera plant,an agave plant,tulips,an oil painting,Your aunt replies:
4755,29,NA,main,Graduated College,219635,1672243949575,1672243729940,female,English,35932,bar,3,main,bar-whiteWine,No but we have chardonnay,Chardonnay,competitor,competitor,You are at a hotel bar. The bar serves only,\n\nA woman walks in. She says to the bartender:,Do you have Sauvignon Blanc?,"I'm sorry, we don't have Sauvignon Blanc today.",We have *.,Sauvignon Blanc,Chardonnay,craft beer,iced coffee,The bartender replies:
4610,30,NA,main,Higher degree,106785,1672164788994,1672164682209,female,English,10279,petAdoption,4,main,petAdoption-hamster,No but we have gerbils,gerbil,competitor,competitor,You are at an adoption center for rescued animals. Currently there are the following animals at the center:,\n\nA family comes in and asks an employee:,Do you have any hamsters?,"I'm sorry, we don’t have any hamsters.",We have *.,hamsters,gerbils,ferrets,golden retrievers,The employee replies:
4633,40,NA,main,Graduated College,200187,1672165880913,1672165680726,male,English,22212,petAdoption,5,main,petAdoption-hamster,No but we have gerbils if you like,gerbil,competitor,competitor,You are at an adoption center for rescued animals. Currently there are the following animals at the center:,\n\nA family comes in and asks an employee:,Do you have any hamsters?,"I'm sorry, we don’t have any hamsters.",We have *.,hamsters,gerbils,ferrets,golden retrievers,The employee replies:
4747,18,NA,main,Graduated High-school,104759,1672243832867,1672243728108,male,english,11946,bar,5,main,bar-tea,no but we have iced coffee,iced coffee,competitor,competitor,You are a bartender in a hotel bar. The bar serves only,\n\nA woman walks in. She says to the bartender:,Do you have iced tea?,"I'm sorry, we don't have iced tea today.",We have *.,iced tea,iced coffee,soda,Chardonnay,The bartender replies:
4651,60,NA,main,Graduated High-school,201156,1672168679852,1672168478696,male,English,51312,cafe,1,main,cafe-pie,"No but we have raspberry pie, would you like that?",raspberry pie,competitor,competitor,You are in a café. Today the café has,\n\nA customer asks the waiter:,Do you have raspberry cake?,"I'm sorry, we don't have raspberry cake today.",We have *.,raspberry cake,raspberry pie,chocolate cookies,cheese pizza,The waiter replies:
4700,36,NA,main,Graduated College,361322,1672237280621,1672236919299,female,English,73846,dutyFree,3,main,dutyFree-smokes,No but we sell cigarettes?,cigarettes,competitor,competitor,You are on an old-fashioned international flight. The flight attendants are selling duty-free items to passengers. The flight attendants currently have the following items on offer:,"\n\nAs a flight attendant walks by, a passenger asks:",Do you sell cigars?,"I'm sorry, we don’t sell cigars.",We sell *.,cigars,cigarettes,gin,gingerbread,The flight attendant replies:
4684,67,none,main,Higher degree,431656,1672172747943,1672172316287,female,English,61069,interior,3,main,interior-green,No but would you consider an agave?,agave,competitor,competitor,Your aunt likes to decorate the house and often crafts decorations herself. She often gives away crafts and plants to friends and family. Your aunt currently has,\n\nA friend just moved and wants to get something to decorate her new apartment. She visits your aunt and asks her:,Do you have an aloe vera plant?,"I'm sorry, I don’t have an aloe vera.",I have *.,an aloe vera plant,an agave plant,tulips,an oil painting,Your aunt replies:
4633,40,NA,main,Graduated College,200187,1672165880913,1672165680726,male,English,24868,gymActivities,4,main,gym-boxing,No but you could try kick-boxing if you like,kickboxing,competitor,competitor,You are at the reception desk of a gym. The gym currently offers,\n\nA woman walks in and asks the receptionist:,Do you offer boxing classes?,"I’m sorry, we don’t have boxing.",We have *.,boxing classes,kickboxing classes,karate classes,pilates,The receptionist replies:
4642,68,NA,main,Did not graduate High-school,506044,1672166176808,1672165670764,male,English,133815,friendsActivities,4,main,friendsActivities-videoEntertainment,No do not have Netflix But have some movies we can watch.,movie,competitor,competitor,"You are at a casual Saturday night get together with your friends at a friend’s house. For activities, the friend prepared",\n\nOne friend asks the host:,Do you have Netflix?,"I'm sorry, I don't have Netflix.",I have *.,Netflix,some movies,Xbox games,Monopoly,The host replies:
4681,29,NA,main,Graduated High-school,245085,1672172087584,1672171842499,male,English,107781,interior,1,main,interior-deco,"No I don't, but I do have an oil painting",oil painting,competitor,competitor,Your aunt likes to decorate the house and often crafts decorations herself. She often gives away crafts and plants to friends and family. Your aunt currently has,\n\nA friend just moved and wants to get something to decorate her new apartment. She visits your aunt and asks her:,Do you have watercolour paintings?,"I'm sorry, I don’t have watercolor paintings.",I have *.,watercolor paintings,an oil painting,some printed photographs,an agave plant,Your aunt replies:
4666,25,NA,main,Graduated College,114802,1672171693907,1672171579105,female,English,19320,friendsActivities,2,main,friendsActivities-videoEntertainment,"No I don't, but I have lots of movies at hand here",movie,competitor,competitor,"You are at a casual Saturday night get together with your friends at a friend’s house. For activities, the friend prepared",\n\nOne friend asks the host:,Do you have Netflix?,"I'm sorry, I don't have Netflix.",I have *.,Netflix,some movies,Xbox games,Monopoly,The host replies:
4761,41,NA,main,Graduated College,284164,1672244039324,1672243755160,male,english,39285,friendsActivities,4,main,friendsActivities-boardGames,"No I don't, but I have monopoly.",Monopoly,competitor,competitor,"You are at a casual Saturday night get together with your friends at a friend’s house. For activities, the friend prepared",\n\nOne friend asks the host:,Do you have Scrabble?,"I'm sorry, I don't have Scrabble.",I have *.,Scrabble,Monopoly,checkers,some movies,The host replies:
4645,32,NA,main,Graduated High-school,114897,1672168586674,1672168471777,male,English,25916,electronics,1,main,electronics-laptop,No I only have a macnook air,MacBook Air,competitor,competitor,You are at a second hand electronics store. The store currently has,\n\nA young man walks in and asks the sales assistant:,Do you have a MacBook Pro?,"I’m sorry, we don’t have a MacBook Pro.",We have *.,a MacBook Pro,a MacBook Air,a desktop computer,an Xbox,The sales assistant replies:
4632,69,NA,main,Graduated High-school,208141,1672165879722,1672165671581,female,English,29856,petAdoption,3,main,petAdoption-dogs,"No I'm sorry, but we have some lovely golden retrievers if you were interested",golden retriever,competitor,competitor,You are at an adoption center for rescued animals. Currently there are the following animals at the center:,\n\nA family comes in and asks an employee:,Do you have any Dalmatians?,"I'm sorry, we don’t have any dalmatians.",We have *.,dalmatians,golden retrievers,chihuahuas,gerbils,The employee replies:
4743,55,NA,main,Graduated High-school,670232,1672240799995,1672240129763,male,english,148381,bar,2,main,bar-whiteWine,"No madam but I have a delicious Chardonnay that would brighten anyone's day , would you care to sample some?",Chardonnay,competitor,competitor,You are at a hotel bar. The bar serves only,\n\nA woman walks in. She says to the bartender:,Do you have Sauvignon Blanc?,"I'm sorry, we don't have Sauvignon Blanc today.",We have *.,Sauvignon Blanc,Chardonnay,craft beer,iced coffee,The bartender replies:
4731,51,NA,main,Graduated High-school,312396,1672240431558,1672240119162,female,English,27672,bar,4,main,bar-tea,No not today.  May I interest you in an iced coffee?,iced coffee,competitor,competitor,You are a bartender in a hotel bar. The bar serves only,\n\nA woman walks in. She says to the bartender:,Do you have iced tea?,"I'm sorry, we don't have iced tea today.",We have *.,iced tea,iced coffee,soda,Chardonnay,The bartender replies:
4645,32,NA,main,Graduated High-school,114897,1672168586674,1672168471777,male,English,14229,dutyFree,5,main,dutyFree-smokes,No only cigarettes,cigarettes,competitor,competitor,You are on an old-fashioned international flight. The flight attendants are selling duty-free items to passengers. The flight attendants currently have the following items on offer:,"\n\nAs a flight attendant walks by, a passenger asks:",Do you sell cigars?,"I'm sorry, we don’t sell cigars.",We sell *.,cigars,cigarettes,gin,gingerbread,The flight attendant replies:
4615,21,I think just make the  font size a little bit bigger,main,Higher degree,164587,1672164847535,1672164682948,female,English,15526,electronics,3,main,electronics-laptop,No only the Macbook air.,MacBook Air,competitor,competitor,You are at a second hand electronics store. The store currently has,\n\nA young man walks in and asks the sales assistant:,Do you have a MacBook Pro?,"I’m sorry, we don’t have a MacBook Pro.",We have *.,a MacBook Pro,a MacBook Air,a desktop computer,an Xbox,The sales assistant replies:
4668,31,NA,main,Graduated College,162355,1672171740950,1672171578595,female,English,18157,electronics,2,main,electronics-console,"No playstations sorry, we do have an Xbox which is similar",Xbox,competitor,competitor,You are at a second hand electronics store. The store currently has,\n\nA young man walks in and asks the sales assistant:,Do you have a PlayStation?,"I’m sorry, we don’t have a PlayStation.",We have *.,a PlayStation,an Xbox,a Gameboy,a MacBook Air,The sales assistant replies:
4640,62,NA,main,Graduated High-school,444611,1672166112109,1672165667498,male,English,84674,waterSport,1,main,waterSport-muscle,"No sir but we do rent the same family of boats, our version is the kayak",kayak,competitor,competitor,You are at a water sports rental agency in a popular tourist region with a large lake for different types of water sports. The agency offers,\n\nA customer calls on the phone and asks the agent:,Do you rent canoes?,"I'm sorry, we don’t rent canoes.",We rent *.,canoes,kayaks,pedal boats,water ski equipment,The agent replies:
4607,60,NA,main,Graduated College,232254,1672163527107,1672163294853,female,English,30326,gymActivities,4,main,gym-yoga,No sorry but we can offer pilates.,pilates,competitor,competitor,You are at the reception desk of a gym. The gym currently offers,\n\nA woman walks in and asks the receptionist:,Do you offer yoga classes?,"I’m sorry, we don’t have yoga.",We have *.,yoga classes,a pilates class,zumba classes,kickboxing,The receptionist replies:
4753,29,NA,main,Graduated College,214327,1672243942307,1672243727980,male,English,62825,bookingAgency,3,main,bookingAgency-lowClassAccommodation,No sorry but we have availibility at a budget hotel?,budget hotel,competitor,competitor,You are in a travel booking agency in a medium-sized tourist town. The following types of accommodation are still available for tomorrow night:,\n\nA young man walks in and asks the agent:,Is there a bed in the youth hostel available for tomorrow night?,"I'm sorry, there are no more beds available in the youth hostel available for tomorrow night.",There is *.,a bed in the youth hostel,a room in a cheap bed-and-breakfast,a room in a budget hotel,a suite in a four-star hotel,The agent replies:
4753,29,NA,main,Graduated College,214327,1672243942307,1672243727980,male,English,37357,petAdoption,5,main,petAdoption-dogs,No sorry but we have golden retrievers if you would like to take a look?,golden retriever,competitor,competitor,You are at an adoption center for rescued animals. Currently there are the following animals at the center:,\n\nA family comes in and asks an employee:,Do you have any Dalmatians?,"I'm sorry, we don’t have any dalmatians.",We have *.,dalmatians,golden retrievers,chihuahuas,gerbils,The employee replies:
4675,30,NA,main,Graduated High-school,292624,1672171866639,1672171574015,female,English,25668,cafe,3,main,cafe-pie,No sorry we only have raspberry pie available.,raspberry pie,competitor,competitor,You are in a café. Today the café has,\n\nA customer asks the waiter:,Do you have raspberry cake?,"I'm sorry, we don't have raspberry cake today.",We have *.,raspberry cake,raspberry pie,chocolate cookies,cheese pizza,The waiter replies:
4722,76,NA,main,Graduated College,221967,1672240350422,1672240128455,female,English,39638,bar,1,main,bar-whiteWine,"No sorry, But the Chardonnay is very good",Chardonnay,competitor,competitor,You are at a hotel bar. The bar serves only,\n\nA woman walks in. She says to the bartender:,Do you have Sauvignon Blanc?,"I'm sorry, we don't have Sauvignon Blanc today.",We have *.,Sauvignon Blanc,Chardonnay,craft beer,iced coffee,The bartender replies:
4616,27,NA,main,Higher degree,132469,1672164859766,1672164727297,female,NA,25738,electronics,3,main,electronics-laptop,"No sorry, we have the MacBook Air though if that interests you.",MacBook Air,competitor,competitor,You are at a second hand electronics store. The store currently has,\n\nA young man walks in and asks the sales assistant:,Do you have a MacBook Pro?,"I’m sorry, we don’t have a MacBook Pro.",We have *.,a MacBook Pro,a MacBook Air,a desktop computer,an Xbox,The sales assistant replies:
4693,32,NA,main,Higher degree,195676,1672237105338,1672236909662,female,English,31896,dutyFree,4,main,dutyFree-smokes,No sorry. I do have some cigarettes if you are interested in those instead?,cigarettes,competitor,competitor,You are on an old-fashioned international flight. The flight attendants are selling duty-free items to passengers. The flight attendants currently have the following items on offer:,"\n\nAs a flight attendant walks by, a passenger asks:",Do you sell cigars?,"I'm sorry, we don’t sell cigars.",We sell *.,cigars,cigarettes,gin,gingerbread,The flight attendant replies:
4688,34,NA,main,Graduated College,143033,1672237050935,1672236907902,female,English,37264,bookingAgency,2,main,bookingAgency-highClassAccommodation,"No there isn't, sorry, but there is a suite in a four star hotel.",four-star hotel,competitor,competitor,You are in a travel booking agency in a medium-sized tourist town. The following types of accommodation are still available for tomorrow night:,\n\nAn older man walks in and asks the agent:,Is a single room in a five-star hotel available for tomorrow night?,"I'm sorry, there is no single room in a five-star hotel available for tomorrow night.",There is *.,a single room in a five-star hotel,a suite in a four-star hotel,an expensive apartment close to the city,a room in a cheap bed-and-breakfast,The agent replies:
4719,34,Nil,main,Higher degree,212503,1672240338178,1672240125675,female,english,32777,cafe,1,main,cafe-pizza,No we don't but you might like to try the cheese pizza?,cheese,competitor,competitor,You are in a café. Today the café has,\n\nA customer asks the waiter:,Do you have veggie pizza?,"I'm sorry, we don't have veggie pizza today.",We have *.,veggie pizza,cheese pizza,pepperoni pizza,raspberry pie,The waiter replies:
4725,40,NA,main,Higher degree,249426,1672240369811,1672240120385,female,english,76706,waterSport,5,main,waterSport-muscle,No we don't have canoes but we do have kayaks which are pretty similar although they are closed boat and have a slightly different padle,kayak,competitor,competitor,You are at a water sports rental agency in a popular tourist region with a large lake for different types of water sports. The agency offers,\n\nA customer calls on the phone and asks the agent:,Do you rent canoes?,"I'm sorry, we don’t rent canoes.",We rent *.,canoes,kayaks,pedal boats,water ski equipment,The agent replies:
4681,29,NA,main,Graduated High-school,245085,1672172087584,1672171842499,male,English,39435,electronics,5,main,electronics-console,"No we don't sorry, we do have an xbox though, would this be ok?",Xbox,competitor,competitor,You are at a second hand electronics store. The store currently has,\n\nA young man walks in and asks the sales assistant:,Do you have a PlayStation?,"I’m sorry, we don’t have a PlayStation.",We have *.,a PlayStation,an Xbox,a Gameboy,a MacBook Air,The sales assistant replies:
4712,27,NA,main,Higher degree,175776,1672240302383,1672240126607,female,English,25459,bar,3,main,bar-tea,No we have iced coffee though.,iced coffee,competitor,competitor,You are a bartender in a hotel bar. The bar serves only,\n\nA woman walks in. She says to the bartender:,Do you have iced tea?,"I'm sorry, we don't have iced tea today.",We have *.,iced tea,iced coffee,soda,Chardonnay,The bartender replies:
4712,27,NA,main,Higher degree,175776,1672240302383,1672240126607,female,English,29509,gymActivities,5,main,gym-boxing,No we have kickboxing classes only.,kickboxing,competitor,competitor,You are at the reception desk of a gym. The gym currently offers,\n\nA woman walks in and asks the receptionist:,Do you offer boxing classes?,"I’m sorry, we don’t have boxing.",We have *.,boxing classes,kickboxing classes,karate classes,pilates,The receptionist replies:
4642,68,NA,main,Did not graduate High-school,506044,1672166176808,1672165670764,male,English,92832,interior,2,main,interior-deco,"No, but have a oil painting you can look at.",oil painting,competitor,competitor,Your aunt likes to decorate the house and often crafts decorations herself. She often gives away crafts and plants to friends and family. Your aunt currently has,\n\nA friend just moved and wants to get something to decorate her new apartment. She visits your aunt and asks her:,Do you have watercolour paintings?,"I'm sorry, I don’t have watercolor paintings.",I have *.,watercolor paintings,an oil painting,some printed photographs,an agave plant,Your aunt replies:
4708,36,NA,main,Graduated High-school,145436,1672240271362,1672240125926,male,English,28576,bookingAgency,3,main,bookingAgency-highClassAccommodation,"No, but how about a suite in a four star hotel?",four-star hotel,competitor,competitor,You are in a travel booking agency in a medium-sized tourist town. The following types of accommodation are still available for tomorrow night:,\n\nAn older man walks in and asks the agent:,Is a single room in a five-star hotel available for tomorrow night?,"I'm sorry, there is no single room in a five-star hotel available for tomorrow night.",There is *.,a single room in a five-star hotel,a suite in a four-star hotel,an expensive apartment close to the city,a room in a cheap bed-and-breakfast,The agent replies:
4650,47,NA,main,Higher degree,202445,1672168673782,1672168471337,female,English,36170,interior,3,main,interior-deco,"No, but I do have an oil painting you could have.",oil painting,competitor,competitor,Your aunt likes to decorate the house and often crafts decorations herself. She often gives away crafts and plants to friends and family. Your aunt currently has,\n\nA friend just moved and wants to get something to decorate her new apartment. She visits your aunt and asks her:,Do you have watercolour paintings?,"I'm sorry, I don’t have watercolor paintings.",I have *.,watercolor paintings,an oil painting,some printed photographs,an agave plant,Your aunt replies:
4630,36,NA,main,Graduated College,158740,1672165844403,1672165685663,female,NA,17245,friendsActivities,1,main,friendsActivities-boardGames,"No, but I do have monopoly!",Monopoly,competitor,competitor,"You are at a casual Saturday night get together with your friends at a friend’s house. For activities, the friend prepared",\n\nOne friend asks the host:,Do you have Scrabble?,"I'm sorry, I don't have Scrabble.",I have *.,Scrabble,Monopoly,checkers,some movies,The host replies:
4656,62,NA,main,Graduated High-school,305912,1672168784565,1672168478653,female,english,44961,books,1,main,books-romance,"No, but I do have some books of French love letters",French love letters,competitor,competitor,You are at a bookshop in a small town. The shop currently has,\n\nA student walks in and asks the cashier:,Do you have a book of love poems?,"I’m sorry, we don’t have love poems.",We sell *.,love poems,books of French love letters,historical dramas,mystery novels,The cashier replies:
4637,56,NA,main,Higher degree,293013,1672166014283,1672165721270,male,English,48173,electronics,3,main,electronics-laptop,"No, but i have a macbook air",MacBook Air,competitor,competitor,You are at a second hand electronics store. The store currently has,\n\nA young man walks in and asks the sales assistant:,Do you have a MacBook Pro?,"I’m sorry, we don’t have a MacBook Pro.",We have *.,a MacBook Pro,a MacBook Air,a desktop computer,an Xbox,The sales assistant replies:
4726,53,NA,main,Graduated College,245193,1672240385441,1672240140248,male,English,35490,friendsActivities,5,main,friendsActivities-videoEntertainment,"No, but I have movies lined up for us to choose from.",movie,competitor,competitor,"You are at a casual Saturday night get together with your friends at a friend’s house. For activities, the friend prepared",\n\nOne friend asks the host:,Do you have Netflix?,"I'm sorry, I don't have Netflix.",I have *.,Netflix,some movies,Xbox games,Monopoly,The host replies:
4647,43,NA,main,Graduated College,120215,1672168597056,1672168476841,male,English,18200,touristInfo,5,main,touristInfo-childTheatre,"No, but there is a circus show.",circus,competitor,competitor,You are at a tourist office in a medium-sized tourist town. Today the following events are happening:,\n\nA young woman walks in and asks the consultant:,Is there a theatre performance for children today?,"I'm sorry, there is no theatre performance for children today.",There is *.,a theatre performance for children,a circus show,a trade fare,a club event with a hip hop DJ,The consultant replies:
4759,39,NA,main,Graduated College,268729,1672243997648,1672243728919,female,English,74553,kidsActivities,4,main,kidsActivities-sports,"No, but there is an acrobatics class.",acrobatics,competitor,competitor,You are at a children’s summer camp. Today a new group of children arrived. They need to sign up for different activities. The camp offers,\n\nA kid walks up to a teacher and asks:,Is there a gymnastics class?,"I'm sorry, there is no gymnastics class.",There is *.,a gymnastics class,an acrobatics class,a karate class,a watercolor painting class,The teacher replies:
4672,33,NA,main,NA,215988,1672171791741,1672171575753,female,English,24269,friendsActivities,4,main,friendsActivities-videoEntertainment,"No, but there's a selection of movies if you want to choose one.",movie,competitor,competitor,"You are at a casual Saturday night get together with your friends at a friend’s house. For activities, the friend prepared",\n\nOne friend asks the host:,Do you have Netflix?,"I'm sorry, I don't have Netflix.",I have *.,Netflix,some movies,Xbox games,Monopoly,The host replies:
4689,30,NA,main,Graduated High-school,173006,1672237066240,1672236893234,female,English,25197,kidsActivities,3,main,kidsActivities-sports,"No, but there's acrobatics",acrobatics,competitor,competitor,You are at a children’s summer camp. Today a new group of children arrived. They need to sign up for different activities. The camp offers,\n\nA kid walks up to a teacher and asks:,Is there a gymnastics class?,"I'm sorry, there is no gymnastics class.",There is *.,a gymnastics class,an acrobatics class,a karate class,a watercolor painting class,The teacher replies:
4647,43,NA,main,Graduated College,120215,1672168597056,1672168476841,male,English,22240,kidsActivities,2,main,kidsActivities-crafts,"No, but there's carpentry if you're interested.",carpentry,competitor,competitor,You are at a children’s summer camp. Today a new group of children arrived. They need to sign up for different activities. The camp offers,\n\nA kid walks up to a teacher and asks:,Is there a pottery class?,"I'm sorry, there is no pottery class.",There is *.,a pottery class,a watercolor painting class,a carpentry workshop,an acrobatics class,The teacher replies:
4751,28,NA,main,Graduated College,147153,1672243869023,1672243721870,male,English,18605,books,2,main,books-romance,"No, but we do have a book on French love letters.
",French love letters,competitor,competitor,You are at a bookshop in a small town. The shop currently has,\n\nA student walks in and asks the cashier:,Do you have a book of love poems?,"I’m sorry, we don’t have love poems.",We sell *.,love poems,books of French love letters,historical dramas,mystery novels,The cashier replies:
4614,30,NA,main,Graduated College,142055,1672164834373,1672164692318,male,English,20315,books,5,main,books-romance,"No, but we do have French love letters.",French love letters,competitor,competitor,You are at a bookshop in a small town. The shop currently has,\n\nA student walks in and asks the cashier:,Do you have a book of love poems?,"I’m sorry, we don’t have love poems.",We sell *.,love poems,books of French love letters,historical dramas,mystery novels,The cashier replies:
4685,27,NA,main,Graduated College,95714,1672237002197,1672236906483,male,English,13701,dutyFree,2,main,dutyFree-sweets,"No, but we do have gingerbread.",gingerbread,competitor,competitor,You are on an old-fashioned international flight. The flight attendants are selling duty-free items to passengers. The flight attendants currently have the following items on offer:,"\n\nAs a flight attendant walks by, a passenger asks:",Do you sell cookies?,"I'm sorry, we don’t sell cookies.",We sell *.,cookies,gingerbread,granola bars,cigarettes,The flight attendant replies:
4729,24,NA,main,Graduated High-school,264807,1672240412648,1672240147841,male,English,33401,gymActivities,4,main,gym-boxing,"No, but we do offer kickboxing classes. Would you be interested in signing up for the kickboxing classes?",kickboxing,competitor,competitor,You are at the reception desk of a gym. The gym currently offers,\n\nA woman walks in and asks the receptionist:,Do you offer boxing classes?,"I’m sorry, we don’t have boxing.",We have *.,boxing classes,kickboxing classes,karate classes,pilates,The receptionist replies:
4619,34,NA,main,Graduated High-school,208664,1672164898665,1672164690001,female,British,50345,gymActivities,3,main,gym-yoga,"No, but we do offer Pilates",pilates,competitor,competitor,You are at the reception desk of a gym. The gym currently offers,\n\nA woman walks in and asks the receptionist:,Do you offer yoga classes?,"I’m sorry, we don’t have yoga.",We have *.,yoga classes,a pilates class,zumba classes,kickboxing,The receptionist replies:
4750,30,NA,main,Graduated College,132518,1672243858741,1672243726223,male,English,18836,books,2,main,books-romance,"No, but we have books of French love letters!",French love letters,competitor,competitor,You are at a bookshop in a small town. The shop currently has,\n\nA student walks in and asks the cashier:,Do you have a book of love poems?,"I’m sorry, we don’t have love poems.",We sell *.,love poems,books of French love letters,historical dramas,mystery novels,The cashier replies:
4708,36,NA,main,Graduated High-school,145436,1672240271362,1672240125926,male,English,23376,petAdoption,1,main,petAdoption-hamster,"No, but we have gerbils.",gerbil,competitor,competitor,You are at an adoption center for rescued animals. Currently there are the following animals at the center:,\n\nA family comes in and asks an employee:,Do you have any hamsters?,"I'm sorry, we don’t have any hamsters.",We have *.,hamsters,gerbils,ferrets,golden retrievers,The employee replies:
4759,39,NA,main,Graduated College,268729,1672243997648,1672243728919,female,English,35817,gymActivities,1,main,gym-boxing,"No, but we offer kickboxing lessons.",kickboxing,competitor,competitor,You are at the reception desk of a gym. The gym currently offers,\n\nA woman walks in and asks the receptionist:,Do you offer boxing classes?,"I’m sorry, we don’t have boxing.",We have *.,boxing classes,kickboxing classes,karate classes,pilates,The receptionist replies:
4647,43,NA,main,Graduated College,120215,1672168597056,1672168476841,male,English,25696,dutyFree,1,main,dutyFree-smokes,"No, but we sell cigarettes.",cigarettes,competitor,competitor,You are on an old-fashioned international flight. The flight attendants are selling duty-free items to passengers. The flight attendants currently have the following items on offer:,"\n\nAs a flight attendant walks by, a passenger asks:",Do you sell cigars?,"I'm sorry, we don’t sell cigars.",We sell *.,cigars,cigarettes,gin,gingerbread,The flight attendant replies:
4710,47,NA,main,Graduated High-school,159101,1672240286434,1672240127333,female,English,21264,interior,3,main,interior-deco,"No, how about an oil painting?",oil painting,competitor,competitor,Your aunt likes to decorate the house and often crafts decorations herself. She often gives away crafts and plants to friends and family. Your aunt currently has,\n\nA friend just moved and wants to get something to decorate her new apartment. She visits your aunt and asks her:,Do you have watercolour paintings?,"I'm sorry, I don’t have watercolor paintings.",I have *.,watercolor paintings,an oil painting,some printed photographs,an agave plant,Your aunt replies:
4685,27,NA,main,Graduated College,95714,1672237002197,1672236906483,male,English,11022,electronics,4,main,electronics-console,"No, how about an Xbox?",Xbox,competitor,competitor,You are at a second hand electronics store. The store currently has,\n\nA young man walks in and asks the sales assistant:,Do you have a PlayStation?,"I’m sorry, we don’t have a PlayStation.",We have *.,a PlayStation,an Xbox,a Gameboy,a MacBook Air,The sales assistant replies:
4650,47,NA,main,Higher degree,202445,1672168673782,1672168471337,female,English,30243,friendsActivities,4,main,friendsActivities-videoEntertainment,"No, how about we watch a movie instead?",movie,competitor,competitor,"You are at a casual Saturday night get together with your friends at a friend’s house. For activities, the friend prepared",\n\nOne friend asks the host:,Do you have Netflix?,"I'm sorry, I don't have Netflix.",I have *.,Netflix,some movies,Xbox games,Monopoly,The host replies:
4669,32,NA,main,Graduated College,166429,1672171749381,1672171582952,female,English,35646,interior,5,main,interior-green,"No, I have an agave plant",agave,competitor,competitor,Your aunt likes to decorate the house and often crafts decorations herself. She often gives away crafts and plants to friends and family. Your aunt currently has,\n\nA friend just moved and wants to get something to decorate her new apartment. She visits your aunt and asks her:,Do you have an aloe vera plant?,"I'm sorry, I don’t have an aloe vera.",I have *.,an aloe vera plant,an agave plant,tulips,an oil painting,Your aunt replies:
4765,35,NA,main,Graduated College,205041,1672244285138,1672244080097,male,English,76969,interior,1,main,interior-deco,"No, i have an oil painting though",oil painting,competitor,competitor,Your aunt likes to decorate the house and often crafts decorations herself. She often gives away crafts and plants to friends and family. Your aunt currently has,\n\nA friend just moved and wants to get something to decorate her new apartment. She visits your aunt and asks her:,Do you have watercolour paintings?,"I'm sorry, I don’t have watercolor paintings.",I have *.,watercolor paintings,an oil painting,some printed photographs,an agave plant,Your aunt replies:
4619,34,NA,main,Graduated High-school,208664,1672164898665,1672164690001,female,British,31542,bar,1,main,bar-whiteWine,"No, I have chardonnay",Chardonnay,competitor,competitor,You are at a hotel bar. The bar serves only,\n\nA woman walks in. She says to the bartender:,Do you have Sauvignon Blanc?,"I'm sorry, we don't have Sauvignon Blanc today.",We have *.,Sauvignon Blanc,Chardonnay,craft beer,iced coffee,The bartender replies:
4711,38,NA,main,Graduated College,171437,1672240296548,1672240125111,male,English,25618,friendsActivities,1,main,friendsActivities-boardGames,"No, i have Monopoly though",Monopoly,competitor,competitor,"You are at a casual Saturday night get together with your friends at a friend’s house. For activities, the friend prepared",\n\nOne friend asks the host:,Do you have Scrabble?,"I'm sorry, I don't have Scrabble.",I have *.,Scrabble,Monopoly,checkers,some movies,The host replies:
4672,33,NA,main,NA,215988,1672171791741,1672171575753,female,English,46931,interior,2,main,interior-deco,"No, I'm sorry but the only painting I have at the moment is an oil painting.",oil painting,competitor,competitor,Your aunt likes to decorate the house and often crafts decorations herself. She often gives away crafts and plants to friends and family. Your aunt currently has,\n\nA friend just moved and wants to get something to decorate her new apartment. She visits your aunt and asks her:,Do you have watercolour paintings?,"I'm sorry, I don’t have watercolor paintings.",I have *.,watercolor paintings,an oil painting,some printed photographs,an agave plant,Your aunt replies:
4632,69,NA,main,Graduated High-school,208141,1672165879722,1672165671581,female,English,29952,dutyFree,5,main,dutyFree-smokes,"NO, I'm sorry I only have cigarettes.",cigarettes,competitor,competitor,You are on an old-fashioned international flight. The flight attendants are selling duty-free items to passengers. The flight attendants currently have the following items on offer:,"\n\nAs a flight attendant walks by, a passenger asks:",Do you sell cigars?,"I'm sorry, we don’t sell cigars.",We sell *.,cigars,cigarettes,gin,gingerbread,The flight attendant replies:
4677,33,an actual enjoyable survey. thanks! :),main,Graduated College,332258,1672171893603,1672171561345,other,English,74771,bookingAgency,1,main,bookingAgency-highClassAccommodation,"no, I'm sorry, that is not available, but we do have a four star hotel option open.",four-star hotel,competitor,competitor,You are in a travel booking agency in a medium-sized tourist town. The following types of accommodation are still available for tomorrow night:,\n\nAn older man walks in and asks the agent:,Is a single room in a five-star hotel available for tomorrow night?,"I'm sorry, there is no single room in a five-star hotel available for tomorrow night.",There is *.,a single room in a five-star hotel,a suite in a four-star hotel,an expensive apartment close to the city,a room in a cheap bed-and-breakfast,The agent replies:
4647,43,NA,main,Graduated College,120215,1672168597056,1672168476841,male,English,16424,interior,3,main,interior-green,"No, only agave plant.",agave,competitor,competitor,Your aunt likes to decorate the house and often crafts decorations herself. She often gives away crafts and plants to friends and family. Your aunt currently has,\n\nA friend just moved and wants to get something to decorate her new apartment. She visits your aunt and asks her:,Do you have an aloe vera plant?,"I'm sorry, I don’t have an aloe vera.",I have *.,an aloe vera plant,an agave plant,tulips,an oil painting,Your aunt replies:
4711,38,NA,main,Graduated College,171437,1672240296548,1672240125111,male,English,28266,bar,2,main,bar-whiteWine,"No, our wine choice is Chardonnay",Chardonnay,competitor,competitor,You are at a hotel bar. The bar serves only,\n\nA woman walks in. She says to the bartender:,Do you have Sauvignon Blanc?,"I'm sorry, we don't have Sauvignon Blanc today.",We have *.,Sauvignon Blanc,Chardonnay,craft beer,iced coffee,The bartender replies:
4657,62,Nothing to add.,main,Graduated College,307308,1672168785168,1672168477860,male,English,54506,petAdoption,5,main,petAdoption-hamster,"No, sorry, but we do have gerbils if you're open to another type of small pet.",gerbil,competitor,competitor,You are at an adoption center for rescued animals. Currently there are the following animals at the center:,\n\nA family comes in and asks an employee:,Do you have any hamsters?,"I'm sorry, we don’t have any hamsters.",We have *.,hamsters,gerbils,ferrets,golden retrievers,The employee replies:
4702,54,NA,main,Graduated College,432511,1672237346494,1672236913983,male,English,71306,bar,1,main,bar-tea,"No, sorry, we do not, but we do have iced coffee.",iced coffee,competitor,competitor,You are a bartender in a hotel bar. The bar serves only,\n\nA woman walks in. She says to the bartender:,Do you have iced tea?,"I'm sorry, we don't have iced tea today.",We have *.,iced tea,iced coffee,soda,Chardonnay,The bartender replies:
4651,60,NA,main,Graduated High-school,201156,1672168679852,1672168478696,male,English,30234,dutyFree,2,main,dutyFree-smokes,"No, sorry. Cigarettes though, would you like those instead?",cigarettes,competitor,competitor,You are on an old-fashioned international flight. The flight attendants are selling duty-free items to passengers. The flight attendants currently have the following items on offer:,"\n\nAs a flight attendant walks by, a passenger asks:",Do you sell cigars?,"I'm sorry, we don’t sell cigars.",We sell *.,cigars,cigarettes,gin,gingerbread,The flight attendant replies:
4655,38,NA,main,Higher degree,281556,1672168763309,1672168481753,female,English,37165,gymActivities,3,main,gym-yoga,"No, the closest we offer is Pilates- you should give it a try",pilates,competitor,competitor,You are at the reception desk of a gym. The gym currently offers,\n\nA woman walks in and asks the receptionist:,Do you offer yoga classes?,"I’m sorry, we don’t have yoga.",We have *.,yoga classes,a pilates class,zumba classes,kickboxing,The receptionist replies:
4605,23,NA,main,Graduated College,247064,1672163430843,1672163183779,female,English,95905,bookingAgency,2,main,bookingAgency-highClassAccommodation,"No, there are no single rooms in any five-star hotels available. The closest to this is a suite in a four-star hotel.",four-star hotel,competitor,competitor,You are in a travel booking agency in a medium-sized tourist town. The following types of accommodation are still available for tomorrow night:,\n\nAn older man walks in and asks the agent:,Is a single room in a five-star hotel available for tomorrow night?,"I'm sorry, there is no single room in a five-star hotel available for tomorrow night.",There is *.,a single room in a five-star hotel,a suite in a four-star hotel,an expensive apartment close to the city,a room in a cheap bed-and-breakfast,The agent replies:
4765,35,NA,main,Graduated College,205041,1672244285138,1672244080097,male,English,48639,touristInfo,4,main,touristInfo-clubbing,"no, there is a hip-hop dj though",hip hop DJ,competitor,competitor,You are at a tourist office in a medium-sized tourist town. Today the following events are happening:,\n\nA young woman walks in and asks the consultant:,Is there a club event with electronic music today?,"I'm sorry, there is no club event with electronic music today.",There is *.,a club event with electronic music,a club event with a hip hop DJ,live jazz music,a circus show,The consultant replies:
4694,25,i enjoyed this id like to do more like this,main,Graduated High-school,213829,1672237113708,1672236899879,female,English,33920,electronics,1,main,electronics-laptop,"no, unfortunatley we only have a Macbook Air in stock at the moment",MacBook Air,competitor,competitor,You are at a second hand electronics store. The store currently has,\n\nA young man walks in and asks the sales assistant:,Do you have a MacBook Pro?,"I’m sorry, we don’t have a MacBook Pro.",We have *.,a MacBook Pro,a MacBook Air,a desktop computer,an Xbox,The sales assistant replies:
4650,47,NA,main,Higher degree,202445,1672168673782,1672168471337,female,English,33765,gymActivities,5,main,gym-boxing,"No, we do kickboxing if that is of interest?",kickboxing,competitor,competitor,You are at the reception desk of a gym. The gym currently offers,\n\nA woman walks in and asks the receptionist:,Do you offer boxing classes?,"I’m sorry, we don’t have boxing.",We have *.,boxing classes,kickboxing classes,karate classes,pilates,The receptionist replies:
4683,43,NA,main,Higher degree,101490,1672172196659,1672172095169,female,english,12035,gymActivities,2,main,gym-boxing,"no, we do kickboxing.",kickboxing,competitor,competitor,You are at the reception desk of a gym. The gym currently offers,\n\nA woman walks in and asks the receptionist:,Do you offer boxing classes?,"I’m sorry, we don’t have boxing.",We have *.,boxing classes,kickboxing classes,karate classes,pilates,The receptionist replies:
4658,63,NA,main,Graduated High-school,303596,1672168787421,1672168483825,male,English,64316,interior,5,main,interior-deco,"No, we don't have any watercolour paintings but we do have oil paintings, if you would like to take a look.",oil painting,competitor,competitor,Your aunt likes to decorate the house and often crafts decorations herself. She often gives away crafts and plants to friends and family. Your aunt currently has,\n\nA friend just moved and wants to get something to decorate her new apartment. She visits your aunt and asks her:,Do you have watercolour paintings?,"I'm sorry, I don’t have watercolor paintings.",I have *.,watercolor paintings,an oil painting,some printed photographs,an agave plant,Your aunt replies:
4765,35,NA,main,Graduated College,205041,1672244285138,1672244080097,male,English,22881,petAdoption,5,main,petAdoption-hamster,"No, we have gerbils",gerbil,competitor,competitor,You are at an adoption center for rescued animals. Currently there are the following animals at the center:,\n\nA family comes in and asks an employee:,Do you have any hamsters?,"I'm sorry, we don’t have any hamsters.",We have *.,hamsters,gerbils,ferrets,golden retrievers,The employee replies:
4739,38,NA,main,Graduated College,511041,1672240637108,1672240126067,female,English,24101,petAdoption,5,main,petAdoption-hamster,"No, we have gerbils though which are similar to hamsters.",gerbil,competitor,competitor,You are at an adoption center for rescued animals. Currently there are the following animals at the center:,\n\nA family comes in and asks an employee:,Do you have any hamsters?,"I'm sorry, we don’t have any hamsters.",We have *.,hamsters,gerbils,ferrets,golden retrievers,The employee replies:
4655,38,NA,main,Higher degree,281556,1672168763309,1672168481753,female,English,34924,electronics,4,main,electronics-laptop,"No, we only have the MacBook Air at the moment.",MacBook Air,competitor,competitor,You are at a second hand electronics store. The store currently has,\n\nA young man walks in and asks the sales assistant:,Do you have a MacBook Pro?,"I’m sorry, we don’t have a MacBook Pro.",We have *.,a MacBook Pro,a MacBook Air,a desktop computer,an Xbox,The sales assistant replies:
4637,56,NA,main,Higher degree,293013,1672166014283,1672165721270,male,English,41909,books,5,main,books-romance,"No, would french love letters be of any interest?",French love letters,competitor,competitor,You are at a bookshop in a small town. The shop currently has,\n\nA student walks in and asks the cashier:,Do you have a book of love poems?,"I’m sorry, we don’t have love poems.",We sell *.,love poems,books of French love letters,historical dramas,mystery novels,The cashier replies:
4631,56,All good!,main,Graduated College,180499,1672165849506,1672165669007,male,English,41232,bar,4,main,bar-tea,"No,sorry, but we do have iced coffee, if you’d like that.",iced coffee,competitor,competitor,You are a bartender in a hotel bar. The bar serves only,\n\nA woman walks in. She says to the bartender:,Do you have iced tea?,"I'm sorry, we don't have iced tea today.",We have *.,iced tea,iced coffee,soda,Chardonnay,The bartender replies:
4649,41,NA,main,Higher degree,190399,1672168663366,1672168472967,male,english,53304,interior,5,main,interior-deco,no. but I have an oil painting,oil painting,competitor,competitor,Your aunt likes to decorate the house and often crafts decorations herself. She often gives away crafts and plants to friends and family. Your aunt currently has,\n\nA friend just moved and wants to get something to decorate her new apartment. She visits your aunt and asks her:,Do you have watercolour paintings?,"I'm sorry, I don’t have watercolor paintings.",I have *.,watercolor paintings,an oil painting,some printed photographs,an agave plant,Your aunt replies:
4649,41,NA,main,Higher degree,190399,1672168663366,1672168472967,male,english,22039,petAdoption,1,main,petAdoption-hamster,no. but we have gerbils,gerbil,competitor,competitor,You are at an adoption center for rescued animals. Currently there are the following animals at the center:,\n\nA family comes in and asks an employee:,Do you have any hamsters?,"I'm sorry, we don’t have any hamsters.",We have *.,hamsters,gerbils,ferrets,golden retrievers,The employee replies:
4643,60,NA,main,Graduated College,678649,1672166354788,1672165676139,male,English,148032,interior,4,main,interior-deco,No. I have oil paintings though. Would you like to have a look at them ? I painted them myself.,oil painting,competitor,competitor,Your aunt likes to decorate the house and often crafts decorations herself. She often gives away crafts and plants to friends and family. Your aunt currently has,\n\nA friend just moved and wants to get something to decorate her new apartment. She visits your aunt and asks her:,Do you have watercolour paintings?,"I'm sorry, I don’t have watercolor paintings.",I have *.,watercolor paintings,an oil painting,some printed photographs,an agave plant,Your aunt replies:
4669,32,NA,main,Graduated College,166429,1672171749381,1672171582952,female,English,36004,books,2,main,books-romance,No. We have a book of french love letters,French love letters,competitor,competitor,You are at a bookshop in a small town. The shop currently has,\n\nA student walks in and asks the cashier:,Do you have a book of love poems?,"I’m sorry, we don’t have love poems.",We sell *.,love poems,books of French love letters,historical dramas,mystery novels,The cashier replies:
4669,32,NA,main,Graduated College,166429,1672171749381,1672171582952,female,English,24381,electronics,4,main,electronics-laptop,No. We have a MacBook Air,MacBook Air,competitor,competitor,You are at a second hand electronics store. The store currently has,\n\nA young man walks in and asks the sales assistant:,Do you have a MacBook Pro?,"I’m sorry, we don’t have a MacBook Pro.",We have *.,a MacBook Pro,a MacBook Air,a desktop computer,an Xbox,The sales assistant replies:
4737,69,NA,main,Graduated College,415692,1672240553259,1672240137567,male,English,52095,bar,4,main,bar-tea,No…..but I have some iced coffee which is the best in town….you will love it.,iced coffee,competitor,competitor,You are a bartender in a hotel bar. The bar serves only,\n\nA woman walks in. She says to the bartender:,Do you have iced tea?,"I'm sorry, we don't have iced tea today.",We have *.,iced tea,iced coffee,soda,Chardonnay,The bartender replies:
4737,69,NA,main,Graduated College,415692,1672240553259,1672240137567,male,English,60232,gymActivities,3,main,gym-boxing,No….but we have some great kickboxing classes that I think you will love.,kickboxing,competitor,competitor,You are at the reception desk of a gym. The gym currently offers,\n\nA woman walks in and asks the receptionist:,Do you offer boxing classes?,"I’m sorry, we don’t have boxing.",We have *.,boxing classes,kickboxing classes,karate classes,pilates,The receptionist replies:
4616,27,NA,main,Higher degree,132469,1672164859766,1672164727297,female,NA,21221,cafe,5,main,cafe-pie,"Not a cake, but we have raspberry pie.",raspberry pie,competitor,competitor,You are in a café. Today the café has,\n\nA customer asks the waiter:,Do you have raspberry cake?,"I'm sorry, we don't have raspberry cake today.",We have *.,raspberry cake,raspberry pie,chocolate cookies,cheese pizza,The waiter replies:
4722,76,NA,main,Graduated College,221967,1672240350422,1672240128455,female,English,40644,touristInfo,4,main,touristInfo-childTheatre,Not a theatre performance but they will love the Circus which starts shortly,circus,competitor,competitor,You are at a tourist office in a medium-sized tourist town. Today the following events are happening:,\n\nA young woman walks in and asks the consultant:,Is there a theatre performance for children today?,"I'm sorry, there is no theatre performance for children today.",There is *.,a theatre performance for children,a circus show,a trade fare,a club event with a hip hop DJ,The consultant replies:
4640,62,NA,main,Graduated High-school,444611,1672166112109,1672165667498,male,English,63969,touristInfo,5,main,touristInfo-clubbing,not today however i can get you into a hip hop session.,hip hop DJ,competitor,competitor,You are at a tourist office in a medium-sized tourist town. Today the following events are happening:,\n\nA young woman walks in and asks the consultant:,Is there a club event with electronic music today?,"I'm sorry, there is no club event with electronic music today.",There is *.,a club event with electronic music,a club event with a hip hop DJ,live jazz music,a circus show,The consultant replies:
4721,27,NA,main,Higher degree,222618,1672240345239,1672240122621,female,"English, French",32032,interior,5,main,interior-deco,Not watercolour but I do have an oil painting if that interests you,oil painting,competitor,competitor,Your aunt likes to decorate the house and often crafts decorations herself. She often gives away crafts and plants to friends and family. Your aunt currently has,\n\nA friend just moved and wants to get something to decorate her new apartment. She visits your aunt and asks her:,Do you have watercolour paintings?,"I'm sorry, I don’t have watercolor paintings.",I have *.,watercolor paintings,an oil painting,some printed photographs,an agave plant,Your aunt replies:
4721,27,NA,main,Higher degree,222618,1672240345239,1672240122621,female,"English, French",46511,touristInfo,4,main,touristInfo-clubbing,"Not with electronic music, but there is a club event with a hip hop DJ",hip hop DJ,competitor,competitor,You are at a tourist office in a medium-sized tourist town. Today the following events are happening:,\n\nA young woman walks in and asks the consultant:,Is there a club event with electronic music today?,"I'm sorry, there is no club event with electronic music today.",There is *.,a club event with electronic music,a club event with a hip hop DJ,live jazz music,a circus show,The consultant replies:
4654,53,NA,main,Higher degree,262809,1672168750445,1672168487636,male,English,41159,waterSport,4,main,waterSport-muscle,"Oh yes, we have wonderful kayaks",kayak,competitor,competitor,You are at a water sports rental agency in a popular tourist region with a large lake for different types of water sports. The agency offers,\n\nA customer calls on the phone and asks the agent:,Do you rent canoes?,"I'm sorry, we don’t rent canoes.",We rent *.,canoes,kayaks,pedal boats,water ski equipment,The agent replies:
4652,36,NA,main,Graduated High-school,217810,1672168701395,1672168483585,female,"english, welsh",35979,interior,2,main,interior-deco,"only oil, want to take a look?",oil painting,competitor,competitor,Your aunt likes to decorate the house and often crafts decorations herself. She often gives away crafts and plants to friends and family. Your aunt currently has,\n\nA friend just moved and wants to get something to decorate her new apartment. She visits your aunt and asks her:,Do you have watercolour paintings?,"I'm sorry, I don’t have watercolor paintings.",I have *.,watercolor paintings,an oil painting,some printed photographs,an agave plant,Your aunt replies:
4670,33,NA,main,Graduated College,170482,1672171760039,1672171589557,male,English,53733,cafe,1,main,cafe-pizza,Our only vegi pizza the cheese pizza,cheese,competitor,competitor,You are in a café. Today the café has,\n\nA customer asks the waiter:,Do you have veggie pizza?,"I'm sorry, we don't have veggie pizza today.",We have *.,veggie pizza,cheese pizza,pepperoni pizza,raspberry pie,The waiter replies:
4756,26,NA,main,Graduated College,227328,1672243962813,1672243735485,female,English,29308,books,5,main,books-fantasy,"Sadly not, we do have an excellent selection of mystery novels available though - would that interest you?",mystery,competitor,competitor,You are at a bookshop in a small town. The shop currently has,\n\nA student walks in and asks the cashier:,Do you sell psychological thrillers?,"I’m sorry, we don’t sell psychological thrillers.",We sell *.,psychological thrillers,mystery novels,adventure novels,books of French love letters,The cashier replies:
4694,25,i enjoyed this id like to do more like this,main,Graduated High-school,213829,1672237113708,1672236899879,female,English,35903,bar,5,main,bar-whiteWine,sadly we have no sauvignon blanc in at the moment but we do offer a lovely chardonnay,Chardonnay,competitor,competitor,You are at a hotel bar. The bar serves only,\n\nA woman walks in. She says to the bartender:,Do you have Sauvignon Blanc?,"I'm sorry, we don't have Sauvignon Blanc today.",We have *.,Sauvignon Blanc,Chardonnay,craft beer,iced coffee,The bartender replies:
4757,57,NA,main,Graduated College,233601,1672243964113,1672243730512,female,English,36709,zoo,2,main,zoo-xl,Shall we go and look at the lion? That’s the closest thing to a tiger they have here today.,lion,competitor,competitor,You and a group of friends are at the zoo today. You all carefully studied the map of the zoo and saw that there is,\n\nOne friend with an eight-year-old kid arrives late. The kid runs up to one of your friend impatiently and asks:,Can we see the tiger?,"I’m sorry, they don’t have a tiger here.",They have *.,a tiger,a lion,a giraffe,iguanas,Your friend replies:
4762,66,NA,main,Higher degree,393355,1672244129375,1672243736020,male,English,98638,books,3,main,books-fantasy,Sorry no but I do have some mystery novels if they would be any good,mystery,competitor,competitor,You are at a bookshop in a small town. The shop currently has,\n\nA student walks in and asks the cashier:,Do you sell psychological thrillers?,"I’m sorry, we don’t sell psychological thrillers.",We sell *.,psychological thrillers,mystery novels,adventure novels,books of French love letters,The cashier replies:
4697,57,NA,main,Graduated College,291393,1672237238869,1672236947476,male,English,34658,bar,4,main,bar-tea,"Sorry no iced tea, but our iced coffee is really popular",iced coffee,competitor,competitor,You are a bartender in a hotel bar. The bar serves only,\n\nA woman walks in. She says to the bartender:,Do you have iced tea?,"I'm sorry, we don't have iced tea today.",We have *.,iced tea,iced coffee,soda,Chardonnay,The bartender replies:
4745,32,NA,main,Higher degree,1448945,1672241577263,1672240128318,male,English,88773,touristInfo,5,main,touristInfo-childTheatre,Sorry no theater performance for children today. There is a circus show if you are interested,circus,competitor,competitor,You are at a tourist office in a medium-sized tourist town. Today the following events are happening:,\n\nA young woman walks in and asks the consultant:,Is there a theatre performance for children today?,"I'm sorry, there is no theatre performance for children today.",There is *.,a theatre performance for children,a circus show,a trade fare,a club event with a hip hop DJ,The consultant replies:
4736,27,NA,main,Graduated High-school,420516,1672240544516,1672240124000,male,English,60201,electronics,2,main,electronics-laptop,"Sorry no, we don't. we only have a MacBook Air",MacBook Air,competitor,competitor,You are at a second hand electronics store. The store currently has,\n\nA young man walks in and asks the sales assistant:,Do you have a MacBook Pro?,"I’m sorry, we don’t have a MacBook Pro.",We have *.,a MacBook Pro,a MacBook Air,a desktop computer,an Xbox,The sales assistant replies:
4634,69,NA,main,Did not graduate High-school,227212,1672165893433,1672165666221,male,English,38591,petAdoption,5,main,petAdoption-dogs,Sorry the only dog we have available is golden retrievers,golden retriever,competitor,competitor,You are at an adoption center for rescued animals. Currently there are the following animals at the center:,\n\nA family comes in and asks an employee:,Do you have any Dalmatians?,"I'm sorry, we don’t have any dalmatians.",We have *.,dalmatians,golden retrievers,chihuahuas,gerbils,The employee replies:
4699,58,NA,main,Graduated College,369913,1672237275084,1672236905171,female,English,62735,waterSport,2,main,waterSport-muscle,Sorry we dont but i can offer you a kayak which is very similar.,kayak,competitor,competitor,You are at a water sports rental agency in a popular tourist region with a large lake for different types of water sports. The agency offers,\n\nA customer calls on the phone and asks the agent:,Do you rent canoes?,"I'm sorry, we don’t rent canoes.",We rent *.,canoes,kayaks,pedal boats,water ski equipment,The agent replies:
4627,30,NA,main,Graduated College,169632,1672165773559,1672165603927,male,English,30770,gymActivities,2,main,gym-boxing,Sorry we only offer kickboxing,kickboxing,competitor,competitor,You are at the reception desk of a gym. The gym currently offers,\n\nA woman walks in and asks the receptionist:,Do you offer boxing classes?,"I’m sorry, we don’t have boxing.",We have *.,boxing classes,kickboxing classes,karate classes,pilates,The receptionist replies:
4632,69,NA,main,Graduated High-school,208141,1672165879722,1672165671581,female,English,49439,bar,4,main,bar-whiteWine,"Sorry, but no.  However ,we do have some rather delicious chardonnay",Chardonnay,competitor,competitor,You are at a hotel bar. The bar serves only,\n\nA woman walks in. She says to the bartender:,Do you have Sauvignon Blanc?,"I'm sorry, we don't have Sauvignon Blanc today.",We have *.,Sauvignon Blanc,Chardonnay,craft beer,iced coffee,The bartender replies:
4692,20,NA,main,Graduated High-school,194401,1672237099998,1672236905597,other,English,41057,zoo,1,main,zoo-reptiles,"Sorry, I don't think there are any chameleons! We can go to the igaunas if you want instead?",iguana,competitor,competitor,You and a group of friends are at the zoo today. You all carefully studied the map of the zoo and saw that there is,\n\nOne friend with an eight-year-old kid arrives late. The kid runs up to one of your friend impatiently and asks:,Can we see the chameleon?,"I'm sorry, they don't have chameleons here.",They have *.,a chameleon,iguanas,turtles,a lion,Your friend replies:
4728,46,NA,main,Higher degree,272615,1672240412216,1672240139601,female,english,39195,bar,5,main,bar-tea,"sorry, just iced coffee, would you like some water?",iced coffee,competitor,competitor,You are a bartender in a hotel bar. The bar serves only,\n\nA woman walks in. She says to the bartender:,Do you have iced tea?,"I'm sorry, we don't have iced tea today.",We have *.,iced tea,iced coffee,soda,Chardonnay,The bartender replies:
4724,43,NA,main,Graduated College,238749,1672240365099,1672240126350,female,English,34823,cafe,4,main,cafe-pizza,"Sorry, no veggie pizza today but there is cheese pizza.",cheese,competitor,competitor,You are in a café. Today the café has,\n\nA customer asks the waiter:,Do you have veggie pizza?,"I'm sorry, we don't have veggie pizza today.",We have *.,veggie pizza,cheese pizza,pepperoni pizza,raspberry pie,The waiter replies:
4652,36,NA,main,Graduated High-school,217810,1672168701395,1672168483585,female,"english, welsh",70989,clothing,1,main,clothing-acc,"sorry, unfortunately we're out of stock at this time. Would you be interested in necklaces instead perhaps?",necklace,competitor,competitor,You are at a small designer clothing store. The store currently has the following items in stock:,\n\nA customer comes in and asks the sales assistant:,Do you have any earrings?,"I'm sorry, we don’t have any earrings.",We have *.,earrings,necklaces,sunglasses,shorts,The sales assistant replies:
4735,42,NA,main,Graduated High-school,389836,1672240523325,1672240133489,male,English,25187,gymActivities,4,main,gym-boxing,"Sorry, we do not offer boxing classes. We do, however offer kickboxing classes.",kickboxing,competitor,competitor,You are at the reception desk of a gym. The gym currently offers,\n\nA woman walks in and asks the receptionist:,Do you offer boxing classes?,"I’m sorry, we don’t have boxing.",We have *.,boxing classes,kickboxing classes,karate classes,pilates,The receptionist replies:
4724,43,NA,main,Graduated College,238749,1672240365099,1672240126350,female,English,44089,bar,2,main,bar-tea,"Sorry, we don’t have iced tea, but we do serve a refreshing iced coffee.",iced coffee,competitor,competitor,You are a bartender in a hotel bar. The bar serves only,\n\nA woman walks in. She says to the bartender:,Do you have iced tea?,"I'm sorry, we don't have iced tea today.",We have *.,iced tea,iced coffee,soda,Chardonnay,The bartender replies:
4741,63,All worked fine,main,Graduated High-school,462786,1672240717892,1672240255106,male,English,50083,friendsActivities,1,main,friendsActivities-boardGames,Sure we have scrabble. Lets see who prefers to to Monopoly.,Monopoly,competitor,competitor,"You are at a casual Saturday night get together with your friends at a friend’s house. For activities, the friend prepared",\n\nOne friend asks the host:,Do you have Scrabble?,"I'm sorry, I don't have Scrabble.",I have *.,Scrabble,Monopoly,checkers,some movies,The host replies:
4697,57,NA,main,Graduated College,291393,1672237238869,1672236947476,male,English,49641,zoo,3,main,zoo-reptiles,"The chameleon is hiding, let's go and see if he is in with the iguanas",iguana,competitor,competitor,You and a group of friends are at the zoo today. You all carefully studied the map of the zoo and saw that there is,\n\nOne friend with an eight-year-old kid arrives late. The kid runs up to one of your friend impatiently and asks:,Can we see the chameleon?,"I'm sorry, they don't have chameleons here.",They have *.,a chameleon,iguanas,turtles,a lion,Your friend replies:
4762,66,NA,main,Higher degree,393355,1672244129375,1672243736020,male,English,52171,cafe,5,main,cafe-pizza,the only pizza I have is a cheese pizza if that would do,cheese,competitor,competitor,You are in a café. Today the café has,\n\nA customer asks the waiter:,Do you have veggie pizza?,"I'm sorry, we don't have veggie pizza today.",We have *.,veggie pizza,cheese pizza,pepperoni pizza,raspberry pie,The waiter replies:
4607,60,NA,main,Graduated College,232254,1672163527107,1672163294853,female,English,38855,zoo,3,main,zoo-xl,There aren't any tigers but we could see a lion.,lion,competitor,competitor,You and a group of friends are at the zoo today. You all carefully studied the map of the zoo and saw that there is,\n\nOne friend with an eight-year-old kid arrives late. The kid runs up to one of your friend impatiently and asks:,Can we see the tiger?,"I’m sorry, they don’t have a tiger here.",They have *.,a tiger,a lion,a giraffe,iguanas,Your friend replies:
4706,23,NA,main,Graduated College,119359,1672240253405,1672240134046,male,English,24917,touristInfo,4,main,touristInfo-childTheatre,there is a circus,circus,competitor,competitor,You are at a tourist office in a medium-sized tourist town. Today the following events are happening:,\n\nA young woman walks in and asks the consultant:,Is there a theatre performance for children today?,"I'm sorry, there is no theatre performance for children today.",There is *.,a theatre performance for children,a circus show,a trade fare,a club event with a hip hop DJ,The consultant replies:
