submission_id,age,answer,category,comments,correct_response,education,experiment_duration,experiment_end_time,experiment_start_time,explanation,gender,itemName,languages,responseTime,settingName,trialNr,trial_type
167,31,Firstly since they don't have the item the assistant must say they do not have it. The assistant however wants to be helpful and knows they are interested in Jewellery and therefore offers a plausible alternative that they may or may not be interested in,goals,,main,Higher degree,445548,1736121862451,1736121416903,"I'm sorry, we don't have earrings. We have necklaces.",male,clothing-acc,English,98360,clothing,2,main
167,31,Netflix is a service that provides movies (along with other content). It is possible that the friend may want to watch a movie so the statement that they have movies may satisfy their need. ,goals,,main,Higher degree,445548,1736121862451,1736121416903,"I'm sorry, we don't have Netflix. We have some movies.",male,friendsActivities-videoEntertainment,English,74619,friendsActivities,3,main
167,31,It is clear that the passenger wants food and specifically a snack as cookies are snacks. Gingerbread is a typical snack that is a possible alternative to a cookie,goals,,main,Higher degree,445548,1736121862451,1736121416903,"I'm sorry, we don't have cookies. We have gingerbread.",male,dutyFree-sweets,English,54684,dutyFree,4,main
168,61,"It is reasonable because the child is Asking to see a certain animal and they don’t have the animal there, but they have a similar one",goals,,main,Graduated College,340454,1736121861173,1736121520719,"I'm sorry, we don't have a chameleon. We have iguanas.",female,zoo-reptiles,English ,53835,zoo,1,main
168,61,"He is simply letting the patron know that they do not have iced tea. And he is offering an alternative that she might be interested in, which is iced coffee.",goals,,main,Graduated College,340454,1736121861173,1736121520719,"I'm sorry, we don't have iced tea. We have iced coffee.",female,bar-tea,English ,40630,bar,5,main
170,19,"He responded with a circus show because he sees the woman is looking for a theatre performance for children. They do not have a theatre performance, but the circus show is for children if she is looking for something different.",goals,:D,main,Did not graduate High-school,548189,1736121930993,1736121382804,"I'm sorry, we don't have a theatre performance for children. We have a circus show.",female,touristInfo-childTheatre,english,81024,touristInfo,2,main
170,19,"His response is reasonable because it seems the friend is looking for a game of scrabble, which is a board game. We do not have scrabble, but we do have a board game called monopoly which is kind of similar.",goals,:D,main,Did not graduate High-school,548189,1736121930993,1736121382804,"I'm sorry, we don't have Scrabble. We have Monopoly.",female,friendsActivities-boardGames,english,90086,friendsActivities,5,main
173,25,"The flight attendant’s response is reasonable because they are addressing the passenger’s request in a relevant and helpful way. When the passenger asks for cookies, the flight attendant acknowledges that they do not have cookies but suggests gingerbread as an alternative.

This response is justified because gingerbread is similar to cookies in texture and purpose (a sweet snack), and the flight attendant aims to offer something close to what the passenger might enjoy. Instead of mentioning unrelated items like cigarettes or granola bars, they focus on gingerbread as it aligns more closely with the passenger’s request. This makes the interaction efficient and considerate of the passenger’s preferences.",goals,,main,Higher degree,728434,1736122173051,1736121444617,"I'm sorry, we don't have cookies. We have gingerbread.",female,dutyFree-sweets,English ,222412,dutyFree,1,main
173,25,"1.	Flight Attendant Scene: Mentioning gingerbread is reasonable because it is a similar sweet snack to cookies and aligns with the passenger’s request.
	2.	Vehicle Rental Scene: The correct response is “motorcycle”, as instructed.",goals,,motorcycle,Higher degree,728434,1736122173051,1736121444617,NA,female,carRental-moving,English ,97992,carRental,2,main
173,25,The sales assistant’s response is reasonable because the Xbox and PlayStation are both gaming consoles and belong to the same product category. Mentioning an Xbox as an alternative when a PlayStation is unavailable helps guide the customer toward another relevant option the store offers.,goals,,main,Higher degree,728434,1736122173051,1736121444617,"I'm sorry, we don't have a PlayStation. We have an Xbox.",female,electronics-console,English ,100419,electronics,3,main
174,19,"The bartender’s response is reasonable because his job is to sell drinks, he doesn’t have any ice tea but he provides another option that the customer might be interested in while also stating what they currently sell or has available.",goals,,main,Graduated College,644491,1736123053399,1736122408908,"I'm sorry, we don't have iced tea. We have iced coffee.",female,bar-tea,"English, Creole, French",113245,bar,2,main
175,68,"Bo, the child is asking to see something that is not represented here at this place called a zoo.
There is a lion, which might seem similar to a tiger to the child, but they are indeed different.",goals,Very interesting premise.,main,Graduated High-school,2396466,1736123861623,1736121465157,"I'm sorry, we don't have a tiger. We have a lion.",female,zoo-xl,English ,1147804,zoo,2,main
175,68,"Bo. a pottery class and a watercolor painting class are two types of an activity to create a piece of art. The pottery class, which the child is asking for, is not available, but the watercolor painting is, of the child is looking for a creative process.",goals,Very interesting premise.,main,Graduated High-school,2396466,1736123861623,1736121465157,"I'm sorry, we don't have a pottery class. We have a watercolor painting class.",female,kidsActivities-crafts,English ,566874,kidsActivities,3,main
175,68,"Bo, what the young man is asking for is not available, but the agent is suggesting something that would be similar to what the young man is requesting. ",goals,Very interesting premise.,main,Graduated High-school,2396466,1736123861623,1736121465157,"I'm sorry, we don't have a bed in the youth hostel. We have a room in a cheap bed-and-breakfast.",female,bookingAgency-lowClassAccommodation,English ,254613,bookingAgency,4,main
175,68,"Bo, what the hotel bar is offering are 3 different types of liquid drinks, of which one the bartender is offering is the closest type of drink the woman is requesting.",goals,Very interesting premise.,main,Graduated High-school,2396466,1736123861623,1736121465157,"I'm sorry, we don't have Sauvignon Blanc. We have Chardonnay.",female,bar-whiteWine,English ,219150,bar,5,main
176,22,"The employee mentions golden retrievers because the family asked about Dalmatians, but they don’t have any. Instead of just saying “no,” the employee suggests golden retrievers, which might be a good alternative since they’re a popular breed. It helps point the family toward another option they might like.",goals,,main,Graduated High-school,497510,1736125730109,1736125232599,"I'm sorry, we don't have dalmatians. We have golden retrievers.",male,petAdoption-dogs,English ,185647,petAdoption,1,main
176,22,"The waiter mentions raspberry pie because the customer asked about raspberry cake, but it’s not available. Instead of just saying “no,” the waiter offers raspberry pie, which is a similar item, keeping the customer’s request in mind and providing a close alternative.",goals,,main,Graduated High-school,497510,1736125730109,1736125232599,"I'm sorry, we don't have raspberry cake. We have raspberry pie.",male,cafe-pie,English ,51323,cafe,5,main
221,21,if they need a jet ski the chaes of them needing water equipment s high therefore its a reasnable ask,goals,,main,Graduated High-school,288828,1738256948385,1738256659557,"I'm sorry, we don't have jet skis. We have water ski equipment.",female,waterSport-motor,english,81237,waterSport,3,main
221,21,they may like the dog as well ,goals,,main,Graduated High-school,288828,1738256948385,1738256659557,"I'm sorry, we don't have dalmatians. We have golden retrievers.",female,petAdoption-dogs,english,18465,petAdoption,5,main
222,38,"Knowing that the intended audience is children, then the circus show is the one that is most appropraite to offer",goals,,main,Higher degree,279824,1738257062063,1738256782239,"I'm sorry, we don't have a theatre performance for children. We have a circus show.",female,touristInfo-childTheatre,English,65312,touristInfo,3,main
223,40,"He informs the the young man that what he looking for is not available so in order keep an potential sales and fulfilling the needs of the customer offer a Xbox is reasonable thing to say as it is a good alternative to the Play station  

",goals,,main,Graduated High-school,447325,1738257063354,1738256616029,"I'm sorry, we don't have a PlayStation. We have an Xbox.",male,electronics-console,English ,163499,electronics,1,main
223,40,there maybe a lot of cross pollination in customers in the type of books this person is is looking to get ,goals,,main,Graduated High-school,447325,1738257063354,1738256616029,"I'm sorry, we don't have psychological thrillers. We have mystery novels.",male,books-fantasy,English ,95201,books,2,main
223,40,Kickboxing is a good alternative and  seems to comes across as more intense and harder exercise to master if a challenge is what they are after ,goals,,main,Graduated High-school,447325,1738257063354,1738256616029,"I'm sorry, we don't have boxing classes. We have kickboxing classes.",male,gym-boxing,English ,87491,gymActivities,3,main
224,18,"EArrings and necklaces are different types of jewellery, someone who wants earrings might be interested in buying a different type of jewellery instead",goals,,main,Higher degree,303956,1738257122311,1738256818355,"I'm sorry, we don't have earrings. We have necklaces.",female,clothing-acc,English,57684,clothing,3,main
226,69,"The response aligns with the request for a dog, albeit different type",goals,,main,Higher degree,215875,1738257271688,1738257055813,"I'm sorry, we don't have dalmatians. We have golden retrievers.",male,petAdoption-dogs,English,50455,petAdoption,3,main
227,65,"The customer requires a form of boat to travel in as opposed to water skiing. Canoes and kayaks are similar modes of water transport
",goals,,main,Graduated High-school,332878,1738257441256,1738257108378,"I'm sorry, we don't have canoes. We have kayaks.",female,waterSport-muscle,English,94563,waterSport,2,main
228,27,Because the bartender is explaining that they dont stock that particular drink that the lady wants but he is offering her something that she may like instead ,goals,,main,Graduated College,266496,1738257476411,1738257209915,"I'm sorry, we don't have Sauvignon Blanc. We have Chardonnay.",female,bar-whiteWine,english,44353,bar,2,main
228,27,"a family wanted a specific breed and they didnt have it, so the centre had said they have goldies.. because this potentially could change the families mind and they may want to adopt a goldie ",goals,,main,Graduated College,266496,1738257476411,1738257209915,"I'm sorry, we don't have dalmatians. We have golden retrievers.",female,petAdoption-dogs,english,55937,petAdoption,4,main
228,27,its reasonable because they have made it clear that they dont have raspberry cake but they do offer a raspberry pie which they have in stock if they would just like something that has raspberry in so they dont leave disappointed and feel like they didnt have options ,goals,,main,Graduated College,266496,1738257476411,1738257209915,"I'm sorry, we don't have raspberry cake. We have raspberry pie.",female,cafe-pie,english,49328,cafe,5,main
235,61,"Both Dalmatians and Golden Retrievers are breeds of dog, so if the family would consider an alternative breed they may adopt a golden retriever instead of a Dalmatian.",goals,,main,Higher degree,582090,1738257751370,1738257169280,"I'm sorry, we don't have dalmatians. We have golden retrievers.",female,petAdoption-dogs,English,162075,petAdoption,1,main
235,61,Because the agent has presumed that the young man is looking for low-cost accommodation and the cheap B&B would be the lowest cost of the options available.,goals,,main,Higher degree,582090,1738257751370,1738257169280,"I'm sorry, we don't have a bed in the youth hostel. We have a room in a cheap bed-and-breakfast.",female,bookingAgency-lowClassAccommodation,English,143846,bookingAgency,3,main
235,61,"The waiter has presumed that the customer likes and fancies eating something sweet with a raspberry flavor, so has suggested the pie as an alternative to the requested cake.",goals,,main,Higher degree,582090,1738257751370,1738257169280,"I'm sorry, we don't have raspberry cake. We have raspberry pie.",female,cafe-pie,English,106999,cafe,4,main
230,27,"Hawaii is a hot island people often travel to for pleasure. A Hawaiian shirt is a colourful and thin shirt that people wear on a holiday such as to Hawaii. Since the customer asked for a Hawaiian shirt, it's possible they are going on holiday to a hot place and want the shirt to stay cool. Since the shop doesn't have any of those shirts, the sales assistant reccomended short because they are another clothing item that can help to keep you cool so would be suitable to wear in hot weather while sweaters and socks are used to keep warm",goals,,main,Graduated College,623642,1738257518114,1738256894472,"I'm sorry, we don't have Hawaiian shirts. We have shorts.",female,clothing-clothes,english urdu,268804,clothing,1,main
230,27,"Out of all the animals at the zoo today, a lion is the most similar to a lion. They are both large cats but have different colour coats. Showing the child the tiger may satisfy his desire to see a lion since they are similar. ",goals,,main,Graduated College,623642,1738257518114,1738256894472,"I'm sorry, we don't have a tiger. We have a lion.",female,zoo-xl,english urdu,96816,zoo,2,main
231,38,The gym doesn't do yoga but the receptionist thought that pilates might be something the person would be interested in as they like doing sports classes.,goals,,main,Graduated High-school,470007,1738257540742,1738257070735,"I'm sorry, we don't have yoga classes. We have a pilates class.",female,gym-yoga,english,85401,gymActivities,2,main
231,38,Water ski equipment would be the next best thing the company has to offer. They don't have what the customer wanted but wanted to suggest something similar.,goals,,main,Graduated High-school,470007,1738257540742,1738257070735,"I'm sorry, we don't have jet skis. We have water ski equipment.",female,waterSport-motor,english,65040,waterSport,5,main
232,37,"The consultant recognised that the young woman was interested in music, so offered details on the music event being hosted.",goals,,main,Higher degree,249284,1738257547883,1738257298599,"I'm sorry, we don't have a club event with electronic music. We have a club event with a hip hop DJ.",male,touristInfo-clubbing,English ,44571,touristInfo,3,main
232,37,"Gymnastics is similar to acrobatics, so offering the alternative is fitting with the kid's enquiry.",goals,,main,Higher degree,249284,1738257547883,1738257298599,"I'm sorry, we don't have a gymnastics class. We have an acrobatics class.",male,kidsActivities-sports,English ,40899,kidsActivities,4,main
234,23,"Cake and pie are different in their construction, however someone who wants raspberry cake may appreciate raspberry pie as an alternative if they are looking for a raspberry flavour.",goals,,main,Higher degree,340163,1738257681042,1738257340879,"I'm sorry, we don't have raspberry cake. We have raspberry pie.",female,cafe-pie,English,70173,cafe,1,main
234,23,"The sales assistant is redirecting the customer to a laptop of the same brand as they asked for, rather than a desktop, which is a different form factor, or a games console which solves a different purpose altogether.",goals,,main,Higher degree,340163,1738257681042,1738257340879,"I'm sorry, we don't have a MacBook Pro. We have a MacBook Air.",female,electronics-laptop,English,48846,electronics,2,main
234,23,"Both Sauvignon Blanc and Chardonnay are types of wine, and therefore might be suitable as alternatives to each other. The other available options are craft beer, which although is alcoholic is not that similar to what was asked for, or iced coffee which is distinctly different.",goals,,main,Higher degree,340163,1738257681042,1738257340879,"I'm sorry, we don't have Sauvignon Blanc. We have Chardonnay.",female,bar-whiteWine,English,57016,bar,3,main
236,41,The woman had asked is there was a specific club event and by giving a reasonable alternative the young lady might want to go to that instead.,goals,,main,Graduated High-school,435522,1738257846903,1738257411381,"I'm sorry, we don't have a club event with electronic music. We have a club event with a hip hop DJ.",female,touristInfo-clubbing,English,99334,touristInfo,3,main
236,41,The suite in the four star would be as close to the request of the five star hotel. The other options available are very different.,goals,,main,Graduated High-school,435522,1738257846903,1738257411381,"I'm sorry, we don't have a single room in a five-star hotel. We have a suite in a four-star hotel.",female,bookingAgency-highClassAccommodation,English,53444,bookingAgency,5,main
241,60,The sales assistant wants to be helpful and offer an alternative product to the customer that the customer may want to buy instead of the one they wanted initially. The Xbox may be the closest alternative.,goals,,main,Graduated High-school,623289,1738257972135,1738257348846,"I'm sorry, we don't have a PlayStation. We have an Xbox.",female,electronics-console,English,126697,electronics,2,main
241,60,The kickboxing class is the closest alternative class type to the boxing class that the woman was looking for. ,goals,,main,Graduated High-school,623289,1738257972135,1738257348846,"I'm sorry, we don't have boxing classes. We have kickboxing classes.",female,gym-boxing,English,96823,gymActivities,3,main
241,60,"The man is looking for a high standard of accommodation, the cheap bed and breakfast is a non-starter and the four star hotel would seem to be the closer of the remaining alternatives. The agent may also be thinking about the commission they would gain from the man booking something with them, rather than walking out the door and booking somewhere else with another agent.",goals,,main,Graduated High-school,623289,1738257972135,1738257348846,"I'm sorry, we don't have a single room in a five-star hotel. We have a suite in a four-star hotel.",female,bookingAgency-highClassAccommodation,English,224418,bookingAgency,4,main
238,22,"Since the bar offers iced coffee but not iced tea, the bartender suggested a drink that is similar to what the woman requested and is availible.",goals,,main,Graduated College,233283,1738257864471,1738257631188,"I'm sorry, we don't have iced tea. We have iced coffee.",female,bar-tea,English,56405,bar,1,main
238,22,"Since acrobatics and gymnastics have similar activities, the teacher suggested the activity that is available and aligns with the child's interests.",goals,,main,Graduated College,233283,1738257864471,1738257631188,"I'm sorry, we don't have a gymnastics class. We have an acrobatics class.",female,kidsActivities-sports,English,46990,kidsActivities,3,main
239,24,"The waiter mentioned Cheese pizza because this would also be classed as a vegetarian pizza option and pepperoni would not be, and it is also an item that exists on the menu. The waiter didn't mention Raspberry Pie because this is a diffent type of food entirely but stayed on the lines of Pizza as this was the orginial request but in a different format.",goals,,main,Graduated College,555793,1738257891040,1738257335247,"I'm sorry, we don't have veggie pizza. We have cheese pizza.",male,cafe-pizza,English,123870,cafe,1,main
239,24,"The response is reasonable beacuse acrobatics and gymnastics share similar traits, so it would be a suitable alternative to suggest, compared to Karate which is another sport entirely and watercolor painting. By staying in the same sports class, it means that hopefully the teacher can get the kid to consider this as it is simialr to his original request of gymnastics and hopefully hes is satisfied.",goals,,main,Graduated College,555793,1738257891040,1738257335247,"I'm sorry, we don't have a gymnastics class. We have an acrobatics class.",male,kidsActivities-sports,English,130425,kidsActivities,3,main
239,24,"Karate is a different form of martial art which is not simialr to the original request of Boxing. Kickboxing is a variation of boxing which also encorporates a different component of fighting which is kicking, but shares the most similarities to the original request from the woman, and therefore the best and closest choice that would satisfy what the woman is looking for.",goals,,main,Graduated College,555793,1738257891040,1738257335247,"I'm sorry, we don't have boxing classes. We have kickboxing classes.",male,gym-boxing,English,117747,gymActivities,4,main
240,52,"The sales assistant’s mention of shorts instead of something unrelated is a reasonable and helpful response, as it aligns with the customer’s likely intent for warm-weather clothing.",goals,,main,Graduated High-school,261066,1738257918568,1738257657502,"I'm sorry, we don't have Hawaiian shirts. We have shorts.",male,clothing-clothes,English,41895,clothing,4,main
240,52,"The receptionist’s mention of pilates is a reasonable and helpful response because it offers a class with a similar focus to yoga, keeping the suggestion relevant to what the customer may be interested in.",goals,,main,Graduated High-school,261066,1738257918568,1738257657502,"I'm sorry, we don't have yoga classes. We have a pilates class.",male,gym-yoga,English,43992,gymActivities,5,main
249,57,The sales assistant has correctly assumed that the customer is looking for jewellery so has offered a reasonable alternative.,goals,,main,Graduated High-school,844720,1738258193935,1738257349215,"I'm sorry, we don't have earrings. We have necklaces.",male,clothing-acc,English,52879,clothing,2,main
249,57,Thrillers and mystery novels are written in very similar styles and are both designed to appeal to a similar type of reader. If you read psychological thrillers then you would probably enjoy reading mystery novels too. ,goals,,main,Graduated High-school,844720,1738258193935,1738257349215,"I'm sorry, we don't have psychological thrillers. We have mystery novels.",male,books-fantasy,English,137039,books,5,main
250,35,Iguanas and chameleons are both from the reptile family and are often confused for each other. When the child was asking for a chameleon it is possible they meant ‘reptile ‘ in general however the friend clarified the specific type of reptile that is available to see. ,goals,,main,Graduated College,484913,1738258197632,1738257712719,"I'm sorry, we don't have a chameleon. We have iguanas.",female,zoo-reptiles,English ,124690,zoo,2,main
250,35,"Gymnastics and acrobatics are similar activities with similar skills and outcomes. If a child is interested in gymnastics but gymnastics isn’t available, acrobatics is the nearest available option.",goals,,main,Graduated College,484913,1738258197632,1738257712719,"I'm sorry, we don't have a gymnastics class. We have an acrobatics class.",female,kidsActivities-sports,English ,85830,kidsActivities,4,main
250,35,The woman has asked for a club event with a specific type of music. This type of music isn’t available so the consultant is advising the woman of a club event with a different type of music.,goals,,main,Graduated College,484913,1738258197632,1738257712719,"I'm sorry, we don't have a club event with electronic music. We have a club event with a hip hop DJ.",female,touristInfo-clubbing,English ,91472,touristInfo,5,main
242,30,"The agent mentioned the next best option of what they had available to the man. The response is reasonable because based on what the man had asked for, it would be fair to assume that he is seeking a certain type of luxury during his stay and a cheap bed-and-breakfast would have been unsuitable to suggest, especially if you are bypassing a more suitable option.",goals,,main,Higher degree,566016,1738258041096,1738257475080,"I'm sorry, we don't have a single room in a five-star hotel. We have a suite in a four-star hotel.",female,bookingAgency-highClassAccommodation,English,118684,bookingAgency,1,main
245,28,Earrings and necklaces are similar decorative items and can also go together. Someone who is looking for earrings is quite likely to look for necklaces also.,goals,,main,Graduated College,423480,1738258073704,1738257650224,"I'm sorry, we don't have earrings. We have necklaces.",male,clothing-acc,English,61340,clothing,4,main
243,48,"Because although its not directly what the friend wants, it is quite similar.",goals,,main,Higher degree,384417,1738258049521,1738257665104,"I'm sorry, we don't have watercolor paintings. We have an oil painting.",male,interior-deco,English,83850,interior,3,main
243,48,"In this case mystery novels could be the closest match to what the student wants, might even be what the student wants.",goals,,main,Higher degree,384417,1738258049521,1738257665104,"I'm sorry, we don't have psychological thrillers. We have mystery novels.",male,books-fantasy,English,63783,books,4,main
243,48,It is reasonable as the man might settle for the 4* alternative as he may be in desperate need of accommodation.,goals,,main,Higher degree,384417,1738258049521,1738257665104,"I'm sorry, we don't have a single room in a five-star hotel. We have a suite in a four-star hotel.",male,bookingAgency-highClassAccommodation,English,69201,bookingAgency,5,main
247,77,the woman wants a wine the bar doesn't sell but the alternative is not that far removed. Just a different flavour.,goals,,main,Graduated High-school,429776,1738258157431,1738257727655,"I'm sorry, we don't have Sauvignon Blanc. We have Chardonnay.",female,bar-whiteWine,english,84997,bar,3,main
251,31,My friend's response is reasonable because lions and Tigers are closely related big cats that belong to the same biological family. Lions are also the closest alternatives to Tigers so makes perfect sense for it to be mentioned rather than any other animal. This means the kids can still have same excitement they expected while seeing lion instead of tiger ,goals,,main,Higher degree,1291783,1738258261927,1738256970144,"I'm sorry, we don't have a tiger. We have a lion.",female,zoo-xl,English,327594,zoo,3,main
251,31,"It is reasonable for the receptionist to mention pilates class when asked about yoga class rather than something else because both are mind-body exercises that focus on strength, flexibility, breath control. This means that the customer could get the same benefit they wanted from a yoga class in pilates class instead. ",goals,,main,Higher degree,1291783,1738258261927,1738256970144,"I'm sorry, we don't have yoga classes. We have a pilates class.",female,gym-yoga,English,317734,gymActivities,4,main
254,40,"Dalmatians and golden retrievers are both breeds of medium sized dogs. It is reasonable for the adoption center to mention golden retrievers because both dog breeds have qualities in temperament, size and care needs that are likeable to each other. And if a person wanted to give a dog a home, the breed doesn't always play a part in the decision.",goals,Interesting study - Thank you,main,Graduated College,1329058,1738258601470,1738257272412,"I'm sorry, we don't have dalmatians. We have golden retrievers.",female,petAdoption-dogs,English,284619,petAdoption,3,main
254,40,"The consultant's response is reasonable because the circus show would have the potential to offer the same joy, excitement and fun as a theatre performance. The young woman was asking about a theatre performance for children. There are similarities between going to the theatre and circus.",goals,Interesting study - Thank you,main,Graduated College,1329058,1738258601470,1738257272412,"I'm sorry, we don't have a theatre performance for children. We have a circus show.",female,touristInfo-childTheatre,English,338167,touristInfo,4,main
254,40,The offer of a room in a cheap bed and breakfast would meet the young man's needs of a bed for the night tomorrow. A youth hostel and bed & breakfast have a likeness and both would be accommodating for the person looking for a bed for tomorrow night.,goals,Interesting study - Thank you,main,Graduated College,1329058,1738258601470,1738257272412,"I'm sorry, we don't have a bed in the youth hostel. We have a room in a cheap bed-and-breakfast.",female,bookingAgency-lowClassAccommodation,English,328529,bookingAgency,5,main
256,61,"From the way the customer phrased their enquiry, they indicated that they were interested in a cold beverage that didn't contain alcohol and was caffeinated. This ruled out Chardonnay, containing alcohol and soda which is alcohol and caffeine free. Therefore the bartender offered an alternative drink closest to that which the customer asked about, since he doesn't sell iced tea.",goals,,main,Graduated High-school,1222653,1738258898499,1738257675846,"I'm sorry, we don't have iced tea. We have iced coffee.",male,bar-tea,English,223515,bar,1,main
256,61," because the customer was enquiring about a single hotel room, the agent ruled out offering a complete apartment that may well have been out of budget for the customer. Using his experience, the agent decided to offer an alternative that seemed most similar to the customer's original enquiry, another hotel room, assuming that it would be more suitable for the budget and was the option that the customer was more likely to purchase.",goals,,main,Graduated High-school,1222653,1738258898499,1738257675846,"I'm sorry, we don't have a single room in a five-star hotel. We have a suite in a four-star hotel.",male,bookingAgency-highClassAccommodation,English,279906,bookingAgency,2,main
256,61,"of the items on offer, the gingerbread most resembles the item that the passenger was enquiring about. Cigarettes are not at all like cookies and so could be ruled out. Granola bars are a bit more like cookies, but have a different shape and texture. Gingerbread often has the look of a cookie and is similar in texture, while being somewhat softer and easier to chew. Therefore the attendant decided that gingerbread represented the best alternative to offer over the cookies the passenger requested.",goals,,main,Graduated High-school,1222653,1738258898499,1738257675846,"I'm sorry, we don't have cookies. We have gingerbread.",male,dutyFree-sweets,English,305535,dutyFree,3,main
256,61,"the friend assumed that the friend's child was interested in seeing something from the lizard family. Lions are mammals so do not fit that bill. Turtles are amphibians, a little similar to lizards in some ways, but not so close that they could be an alternative suggestion. Iguanas and chameleons are both members of the lizard family, so the friend was justified in offering iguanas as an alternative to the child's enquiry.


",goals,,main,Graduated High-school,1222653,1738258898499,1738257675846,"I'm sorry, we don't have a chameleon. We have iguanas.",male,zoo-reptiles,English,285004,zoo,4,main
257,41,"The person mentioned wanting a five star hotel, so the closest option to that rating is a four-star hotel. A suite is too much space but it is the best of the 3 options given that an apartment is even larger but would not come with the accommodations of a hotel.",goals,,main,Graduated College,489965,1738259241022,1738258751057,"I'm sorry, we don't have a single room in a five-star hotel. We have a suite in a four-star hotel.",other,bookingAgency-highClassAccommodation,English,128220,bookingAgency,1,main
258,67,"The hosts were prepared to offer another game that they had arranged
that evening and although the friend would have preferred to play 
scrabble the response was reasonable giving the friend another opportunity to play a different game ",goals,,main,Did not graduate High-school,1074220,1738260076874,1738259002654,"I'm sorry, we don't have Scrabble. We have Monopoly.",male,friendsActivities-boardGames,British,250776,friendsActivities,2,main
258,67,The small designer clothing store was doing her best to provide another option to what the customer required and gave Bo a reasonable choice of different options which were avaliable,goals,,main,Did not graduate High-school,1074220,1738260076874,1738259002654,"I'm sorry, we don't have Hawaiian shirts. We have shorts.",male,clothing-clothes,British,255920,clothing,4,main
258,67,The bookshop provided various books which was quite varied but the student really only wanted a book based on love poems and shows that the cashier was prepared to offer other opportunities ,goals,,main,Did not graduate High-school,1074220,1738260076874,1738259002654,"I'm sorry, we don't have love poems. We have books of French love letters.",male,books-romance,British,212624,books,5,main
174,19,The sales assistant’s job is to sell whatever the store has in stock and is selling. Because she  says “we have necklaces” means that they either don’t have any earrings in stock or they don’t sell earrings at all.,literal,,main,Graduated College,644491,1736123053399,1736122408908,"I'm sorry, we don't have earrings. We have necklaces.",female,clothing-acc,"English, Creole, French",245719,clothing,1,main
174,19,The cashier responds by saying what they currently sell which is mystery novels.,literal,,main,Graduated College,644491,1736123053399,1736122408908,"I'm sorry, we don't have psychological thrillers. We have mystery novels.",female,books-fantasy,"English, Creole, French",107002,books,4,main
174,19,The aunt’s response is to state what she currently sells which isn’t what the customer inquired about.,goals,,main,Graduated College,644491,1736123053399,1736122408908,"I'm sorry, we don't have watercolor paintings. We have an oil painting.",female,interior-deco,"English, Creole, French",72837,interior,5,main
248,35,"It is reasonable because it is polite, it answers the question and it then goes on the clarify what they do have.",other,,main,Graduated High-school,550371,1738258173585,1738257623214,"I'm sorry, we don't have jet skis. We have water ski equipment.",female,waterSport-motor,english,292577,waterSport,1,main
253,35,Again its reasonable because they are being upfront and honest about the classes they have ,literal,,main,Higher degree,350059,1738258567709,1738258217650,"I'm sorry, we don't have a gymnastics class. We have an acrobatics class.",male,kidsActivities-sports,English,30236,kidsActivities,2,main
253,35,They are again being honest about what the have available and give an alternative to a class they could do,literal,,main,Higher degree,350059,1738258567709,1738258217650,"I'm sorry, we don't have boxing classes. We have kickboxing classes.",male,gym-boxing,English,123599,gymActivities,4,main
260,53,"The response is reasonable because he is giving info on what they actually do have, so the caller can decide if they want to do that activity instead of using a jetski",literal,Thanks!,main,Graduated College,855621,1738261729845,1738260874224,"I'm sorry, we don't have jet skis. We have water ski equipment.",male,waterSport-motor,English,260173,waterSport,1,main
260,53,The teacher is giving information on the class that actually is available. They are being polite by starting by saying 'I'm sorry',other,Thanks!,main,Graduated College,855621,1738261729845,1738260874224,"I'm sorry, we don't have a pottery class. We have a watercolor painting class.",male,kidsActivities-crafts,English,154036,kidsActivities,2,main
260,53,"The sales assistant starts by being polite and saying,'I'm sorry,' Then they say what is available for sale.",other,Thanks!,main,Graduated College,855621,1738261729845,1738260874224,"I'm sorry, we don't have Hawaiian shirts. We have shorts.",male,clothing-clothes,English,129163,clothing,3,main
260,53,"The cashier responds by being polite by saying 'I'm Sorry,' and then giving an alternate option of what is available for sale. Love letters express similar emotions.",similarity,Thanks!,main,Graduated College,855621,1738261729845,1738260874224,"I'm sorry, we don't have love poems. We have books of French love letters.",male,books-romance,English,163275,books,4,main
168,61,"Once again, he is simply explaining that what she is asking they do not have, but he is offering an alternative.",goals,,main,Graduated College,340454,1736121861173,1736121520719,"I'm sorry, we don't have a club event with electronic music. We have a club event with a hip hop DJ.",female,touristInfo-clubbing,English ,38563,touristInfo,3,main
169,40,Sorry we don’t have Scramble but could play next time. We can purchase at the store. For now we can play the fun game monopoly. ,other,,main,Graduated College,457768,1736121908295,1736121450527,"I'm sorry, we don't have Scrabble. We have Monopoly.",female,friendsActivities-boardGames,English,114042,friendsActivities,1,main
169,40,The Mac would be as close to what you’re looking for. We can call you if something comes in to your liking.,goals,,main,Graduated College,457768,1736121908295,1736121450527,"I'm sorry, we don't have a MacBook Pro. We have a MacBook Air.",female,electronics-laptop,English,81541,electronics,2,main
169,40,If we get a specialist we may start having yoga class. For now we have Pilates you may enjoy,other,,main,Graduated College,457768,1736121908295,1736121450527,"I'm sorry, we don't have yoga classes. We have a pilates class.",female,gym-yoga,English,95467,gymActivities,3,main
170,19,"My aunt's response is reasonable because the only plant she has is the agave plant, which is why she mentioned it.",other,:D,main,Did not graduate High-school,548189,1736121930993,1736121382804,"I'm sorry, we don't have an aloe vera plant. We have an agave plant.",female,interior-green,english,97930,interior,1,main
171,38,the waiter is used to the same problem and he knows what actually people do mistake,other,thank you,main,Higher degree,565126,1736120707660,1736120142534,"I'm sorry, we don't have raspberry cake. We have raspberry pie.",female,cafe-pie,english,222992,cafe,1,main
171,38,the sale assistance is very specific to macbook air which is very correct,other,thank you,main,Higher degree,565126,1736120707660,1736120142534,"I'm sorry, we don't have a MacBook Pro. We have a MacBook Air.",female,electronics-laptop,english,83922,electronics,2,main
171,38,the consoltant  is just elaborating what they deal with,other,thank you,main,Higher degree,565126,1736120707660,1736120142534,"I'm sorry, we don't have a theatre performance for children. We have a circus show.",female,touristInfo-childTheatre,english,79765,touristInfo,4,main
171,38,thr employee explain what they have as alternative which is very good,other,thank you,main,Higher degree,565126,1736120707660,1736120142534,"I'm sorry, we don't have dalmatians. We have golden retrievers.",female,petAdoption-dogs,english,68573,petAdoption,5,main
172,50,"Her answer is reasonable.  Gingerbread maybe soft and shaped like a loaf of bread instead of cookies.
",other,,main,Graduated College,615232,1736122010984,1736121395752,"I'm sorry, we don't have cookies. We have gingerbread.",other,dutyFree-sweets,English ,82370,dutyFree,2,main
172,50,"Watercolor paintings are paintings but not produced with oil.
",other,,main,Graduated College,615232,1736122010984,1736121395752,"I'm sorry, we don't have watercolor paintings. We have an oil painting.",other,interior-deco,English ,153264,interior,3,main
173,25,"It’s reasonable because that’s a personal question, and because of confidentiality rules the sale assistant needs to respond professionally.",other,,main,Higher degree,728434,1736122173051,1736121444617,"I'm sorry, we don't have earrings. We have necklaces.",female,clothing-acc,English ,84746,clothing,4,main
173,25,"The response is reasonable because people make choices , you offer several options and they choose , recommend on choices are not bad , the sales assistant believes that if the first choice is not available then there are other alternatives available which is recommdable. At least  she did the job professionally ",other,,main,Higher degree,728434,1736122173051,1736121444617,"I'm sorry, we don't have canoes. We have kayaks.",female,waterSport-muscle,English ,142061,waterSport,5,main
176,22,"The host mentions Monopoly because the friend asked about Scrabble, but they don’t have it. Instead of just saying “no,” the host offers another game to keep things moving.",goals,,main,Graduated High-school,497510,1736125730109,1736125232599,"I'm sorry, we don't have Scrabble. We have Monopoly.",male,friendsActivities-boardGames,English ,52476,friendsActivities,2,main
176,22,"The cashier mentions books of French love letters because they’re similar to love poems. Instead of just saying “no,” the cashier offers something related that might still interest the student.",goals,,main,Graduated High-school,497510,1736125730109,1736125232599,"I'm sorry, we don't have love poems. We have books of French love letters.",male,books-romance,English ,49995,books,4,main
221,21,they are there to encourage you to sales so by mentioning the shorts they still aid in a sale in the style you like,other,,main,Graduated High-school,288828,1738256948385,1738256659557,"I'm sorry, we don't have Hawaiian shirts. We have shorts.",female,clothing-clothes,english,80549,clothing,1,main
222,38,"I don't feel this is a reasonable response as if someone is looking for a shirt, they are more likely to go with a sweatshirt as an alternative.",other,,main,Higher degree,279824,1738257062063,1738256782239,"I'm sorry, we don't have Hawaiian shirts. We have shorts.",female,clothing-clothes,English,61920,clothing,5,main
224,18,"Because kickboxing is different to boxing, it's about kicking, whereas boxing is more about punching",other,,main,Higher degree,303956,1738257122311,1738256818355,"I'm sorry, we don't have boxing classes. We have kickboxing classes.",female,gym-boxing,English,50900,gymActivities,1,main
224,18,"Netflix is a streaming service with movies available, however the person hosting the party seems to have access to movies a different way",features,,main,Higher degree,303956,1738257122311,1738256818355,"I'm sorry, we don't have Netflix. We have some movies.",female,friendsActivities-videoEntertainment,English,61085,friendsActivities,5,main
228,27,"its reasonable because they are offering an alternative game to play rather than just telling them they dont have it. Atleast even if the person doesnt want to play monopoly, atleast they have been given the option",goals,,main,Graduated College,266496,1738257476411,1738257209915,"I'm sorry, we don't have Scrabble. We have Monopoly.",female,friendsActivities-boardGames,english,54367,friendsActivities,3,main
229,54,you can still watch movies without having netflix,features,,main,Graduated College,516800,1738257481168,1738256964368,"I'm sorry, we don't have Netflix. We have some movies.",female,friendsActivities-videoEntertainment,English ,80644,friendsActivities,3,main
237,52,"Ad she doesn't have the specific plant, this alternative is offered instead to try and help the person, if not exactly, as a replacement.",features,,main,Graduated College,311652,1738257863024,1738257551372,"I'm sorry, we don't have an aloe vera plant. We have an agave plant.",female,interior-green,English,56998,interior,2,main
237,52,"Reasonable due to the fact that Hawaiian shirts are often worn with shorts, so the person could be interested.",features,,main,Graduated College,311652,1738257863024,1738257551372,"I'm sorry, we don't have Hawaiian shirts. We have shorts.",female,clothing-clothes,English,49415,clothing,5,main
246,62,"Netflix is an entertainment streaming service that shows TV shows and movies. The host offered movies as that is part of what is found on Netflix, so would be a good substitute.",features,,main,Graduated High-school,656580,1738258137866,1738257481286,"I'm sorry, we don't have Netflix. We have some movies.",other,friendsActivities-videoEntertainment,English,94967,friendsActivities,2,main
246,62,"Because out of all the options available, iced coffee is the closest to iced tea. Tea and coffee are very popular hot drinks, and so are their iced versions.",similarity,,main,Graduated High-school,656580,1738258137866,1738257481286,"I'm sorry, we don't have iced tea. We have iced coffee.",other,bar-tea,English,84195,bar,3,main
239,24,"An Xbox is very similar to a playstation in terms of the games it plays, performance, features and price. It makes most sense to reccommend this as it is a games console unlike the Macbook and is not a portable gaming device which is much more underpowered and lacks certain features like a Gameboy. So Xbox is the most reasonable alternative to suggest to this man.",similarity,,main,Graduated College,555793,1738257891040,1738257335247,"I'm sorry, we don't have a PlayStation. We have an Xbox.",male,electronics-console,English,102529,electronics,5,main
240,52,"The agent’s mention of water ski equipment instead of something unrelated is a reasonable response because it offers an alternative water sport option that is likely the closest in nature to jet skiing, keeping the conversation relevant and helpful to the customer.",features,,main,Graduated High-school,261066,1738257918568,1738257657502,"I'm sorry, we don't have jet skis. We have water ski equipment.",male,waterSport-motor,English,51857,waterSport,2,main
249,57,Its fair to explain that they don't have an on-demand streaming service but they can still watch the movies they already own.,features,,main,Graduated High-school,844720,1738258193935,1738257349215,"I'm sorry, we don't have Netflix. We have some movies.",male,friendsActivities-videoEntertainment,English,237941,friendsActivities,1,main
245,28,"Boxing is a sport without the use of ""kicking"" which makes it different to ""kickboxing"" that allows the use of both punches and kicks. The receptionist was right to respond in the way the did in order to differentiate the two. ",other,,main,Graduated College,423480,1738258073704,1738257650224,"I'm sorry, we don't have boxing classes. We have kickboxing classes.",male,gym-boxing,English,82142,gymActivities,2,main
245,28,His response is reasonable as 'Iguanas' are available at the zoo and are similar to 'Chameleons' is species/appearance. So even if there is no 'Chameleons' the eight-year-old may enjoy the 'Iguanas'.,similarity,,main,Graduated College,423480,1738258073704,1738257650224,"I'm sorry, we don't have a chameleon. We have iguanas.",male,zoo-reptiles,English,143377,zoo,3,main
248,35,"It is reasonable because it apologise, answer the question and then offers an alternative.",other,,main,Graduated High-school,550371,1738258173585,1738257623214,"I'm sorry, we don't have Hawaiian shirts. We have shorts.",female,clothing-clothes,english,47384,clothing,2,main
248,35,"It is reasonable because it starts with an apology, answers the question and then offers an appropriate alternative.",other,,main,Graduated High-school,550371,1738258173585,1738257623214,"I'm sorry, we don't have yoga classes. We have a pilates class.",female,gym-yoga,english,49801,gymActivities,4,main
248,35,"It is reasonable because it apologises, answer the question and then offers an appropriate alternative.",other,,main,Graduated High-school,550371,1738258173585,1738257623214,"I'm sorry, we don't have love poems. We have books of French love letters.",female,books-romance,english,62403,books,5,main
243,48,It's reasonable as the assistant is trying be helpful in suggesting another item that the customer may be interested in.,other,,main,Higher degree,384417,1738258049521,1738257665104,"I'm sorry, we don't have earrings. We have necklaces.",male,clothing-acc,English,71817,clothing,2,main
244,64,The consultant wants to clarify that the club event involves a hip hop DJ because they may be unsure whether this means it also involves electronic music.,other,Interesting! In the attention check question I was unsure whether you wanted the word and an explanation.,main,Higher degree,613586,1738258077482,1738257463896,"I'm sorry, we don't have a club event with electronic music. We have a club event with a hip hop DJ.",female,touristInfo-clubbing,English,181165,touristInfo,1,main
244,64,"The aunt wants to offer the gift of a painting to the friend and wants her to understand that the painting is in the medium of oil paints, rather than watercolours.",other,Interesting! In the attention check question I was unsure whether you wanted the word and an explanation.,main,Higher degree,613586,1738258077482,1738257463896,"I'm sorry, we don't have watercolor paintings. We have an oil painting.",female,interior-deco,English,145581,interior,3,main
247,77,the subject is the same but the execution is different. love poems are usually written in verse a letter isn't.,features,,main,Graduated High-school,429776,1738258157431,1738257727655,"I'm sorry, we don't have love poems. We have books of French love letters.",female,books-romance,english,96021,books,1,main
252,53,"The sales assistant may mention necklaces to draw attention to the stock that she doesn't sell, so since she doesn't have earrings she alrts the customer that she does have necklaces. ",other,,main,Graduated College,784416,1738258464630,1738257680214,"I'm sorry, we don't have earrings. We have necklaces.",female,clothing-acc,English,76756,clothing,4,main
252,53,"Electronic music is a different genre to hip-hop, although they both use electronic equipment, the genre is different, 'electronic music would cover genres such as techno, electro or possibly house. ",similarity,,main,Graduated College,784416,1738258464630,1738257680214,"I'm sorry, we don't have a club event with electronic music. We have a club event with a hip hop DJ.",female,touristInfo-clubbing,English,104210,touristInfo,5,main
253,35,It's reasonable because they are honest with the man and also give them an option that is available to the man. I think it's worthwhile to mention it so it at least gives some options. ,literal,,main,Higher degree,350059,1738258567709,1738258217650,"I'm sorry, we don't have a single room in a five-star hotel. We have a suite in a four-star hotel.",male,bookingAgency-highClassAccommodation,English,69753,bookingAgency,1,main
253,35,It's an honest and frank response to a degree but again its straight to the point. ,other,,main,Higher degree,350059,1738258567709,1738258217650,"I'm sorry, we don't have earrings. We have necklaces.",male,clothing-acc,English,34683,clothing,3,main
255,36,"A Macbook is a laptop, a Gameboy is a handheld device for gaming. Playstation and Xbox are both gaming consoles.",features,,main,Graduated College,744145,1738258782118,1738258037973,"I'm sorry, we don't have a PlayStation. We have an Xbox.",female,electronics-console,English,58418,electronics,3,main
258,67,"Because the sales assistant was prepared to give the young man two
options which shows integrity and willingness to go the extra mile
and generally offer a reasonable solution to the problem",other,,main,Did not graduate High-school,1074220,1738260076874,1738259002654,"I'm sorry, we don't have a MacBook Pro. We have a MacBook Air.",male,electronics-laptop,British,209144,electronics,1,main
166,32,Thrillers are closely related to mysteries as they are both exciting and keep the reader guessing about the ending. ,features,,main,Higher degree,304059,1736121693839,1736121389780,"I'm sorry, we don't have psychological thrillers. We have mystery novels.",female,books-fantasy,English,58619,books,2,main
166,32,"Of all the items that the flight attendant is selling, gingerbread is the most closely related to cookies. Both go get read and cookies are baked treats.",features,,main,Higher degree,304059,1736121693839,1736121389780,"I'm sorry, we don't have cookies. We have gingerbread.",female,dutyFree-sweets,English,61144,dutyFree,3,main
166,32,An Xbox and a PlayStation are just two different types of the same thing- a game system. Both play game discs and have controllers that help the player control actions in the game.,similarity,,main,Higher degree,304059,1736121693839,1736121389780,"I'm sorry, we don't have a PlayStation. We have an Xbox.",female,electronics-console,English,54065,electronics,4,main
166,32,Gerbils and hamsters are similar creatures. They’re both small and rodent like. They also are kept in similar cages so having either as a pet would be a similar experience. ,features,,main,Higher degree,304059,1736121693839,1736121389780,"I'm sorry, we don't have hamsters. We have gerbils.",female,petAdoption-hamster,English,48751,petAdoption,5,main
167,31,The assistant clearly answers the question by saying that they don't have what he is looking for but offers an alternative that is more helpful than simply stopping the conversation there (which would have been less helpful). The alternative may or may not be acceptable but is offered just in case,goals,,main,Higher degree,445548,1736121862451,1736121416903,"I'm sorry, we don't have a PlayStation. We have an Xbox.",male,electronics-console,English,118345,electronics,1,main
168,61,The agent is explaining that they do not have availability in with the gentleman is asking. But he is offering a reasonable alternative.,goals,,main,Graduated College,340454,1736121861173,1736121520719,"I'm sorry, we don't have a single room in a five-star hotel. We have a suite in a four-star hotel.",female,bookingAgency-highClassAccommodation,English ,47681,bookingAgency,2,main
169,40,Cigarettes is the next best thing to cigars.,similarity,,main,Graduated College,457768,1736121908295,1736121450527,"I'm sorry, we don't have cigars. We have cigarettes.",female,dutyFree-smokes,English,70488,dutyFree,5,main
170,19,"His response is reasonable because the kid asks if they can go see the tiger, but they do not have a tiger. The closest thing they have to a tiger is a lion. So, he asks him if he wants to see the lion instead.",goals,:D,main,Did not graduate High-school,548189,1736121930993,1736121382804,"I'm sorry, we don't have a tiger. We have a lion.",female,zoo-xl,english,92621,zoo,3,main
172,50,Hamsters are similar to gerbils but not the same. Gerbils are bigger.,similarity,,main,Graduated College,615232,1736122010984,1736121395752,"I'm sorry, we don't have hamsters. We have gerbils.",other,petAdoption-hamster,English ,109236,petAdoption,1,main
172,50,Psychological thrillers are a similar but not same genre of books. They both commonly have suspense.,similarity,,main,Graduated College,615232,1736122010984,1736121395752,"I'm sorry, we don't have psychological thrillers. We have mystery novels.",other,books-fantasy,English ,114587,books,4,main
221,21,its the same company and has similar features so why not,similarity,,main,Graduated High-school,288828,1738256948385,1738256659557,"I'm sorry, we don't have a MacBook Pro. We have a MacBook Air.",female,electronics-laptop,english,20213,electronics,4,main
222,38,The answer is reasonable as Chardonnay is another type of wine and the most similar there is to Savignon blanc,similarity,,main,Higher degree,279824,1738257062063,1738256782239,"I'm sorry, we don't have Sauvignon Blanc. We have Chardonnay.",female,bar-whiteWine,English,42056,bar,1,main
222,38,MacBook air is the closest alternative available to the MacBook Pro,similarity,,main,Higher degree,279824,1738257062063,1738256782239,"I'm sorry, we don't have a MacBook Pro. We have a MacBook Air.",female,electronics-laptop,English,50688,electronics,2,main
223,40,"Cheese pizza are still ok for a veggie to eat.
Plus it is still a pizza",similarity,,main,Graduated High-school,447325,1738257063354,1738256616029,"I'm sorry, we don't have veggie pizza. We have cheese pizza.",male,cafe-pizza,English ,51081,cafe,5,main
224,18,"A gerbil is a different type of animal to a hamster, however they are similar so it seems reasonable to mention gerbils in case the family were open to adopting gerbils instead",similarity,,main,Higher degree,303956,1738257122311,1738256818355,"I'm sorry, we don't have hamsters. We have gerbils.",female,petAdoption-hamster,English,58710,petAdoption,2,main
225,32,Because raspberry pie and cake will be similar - so waiter is making an alternate suggestion ,similarity,,main,Higher degree,375086,1738257212981,1738256837895,"I'm sorry, we don't have raspberry cake. We have raspberry pie.",female,cafe-pie,English ,88403,cafe,1,main
225,32,As friend wants picture of specific plant your aunt doesn’t have that but has something similar ,similarity,,main,Higher degree,375086,1738257212981,1738256837895,"I'm sorry, we don't have an aloe vera plant. We have an agave plant.",female,interior-green,English ,60539,interior,2,main
225,32,Sales person is suggesting an alternative item of clothing that may be needed ,features,,main,Higher degree,375086,1738257212981,1738256837895,"I'm sorry, we don't have Hawaiian shirts. We have shorts.",female,clothing-clothes,English ,72279,clothing,3,main
225,32,"Golden retriever and Dalmatian’s are a similar size and temperament 
of dog ",features,,main,Higher degree,375086,1738257212981,1738256837895,"I'm sorry, we don't have dalmatians. We have golden retrievers.",female,petAdoption-dogs,English ,46850,petAdoption,4,main
226,69,Simple statement of fact followed by a potentially acceptable alternative,similarity,,main,Higher degree,215875,1738257271688,1738257055813,"I'm sorry, we don't have a pottery class. We have a watercolor painting class.",male,kidsActivities-crafts,English,48012,kidsActivities,2,main
226,69,It is the closest alternative,similarity,,main,Higher degree,215875,1738257271688,1738257055813,"I'm sorry, we don't have a bed in the youth hostel. We have a room in a cheap bed-and-breakfast.",male,bookingAgency-lowClassAccommodation,English,33889,bookingAgency,4,main
226,69,It is a plant which may or may not be acceptable ,similarity,,main,Higher degree,215875,1738257271688,1738257055813,"I'm sorry, we don't have an aloe vera plant. We have an agave plant.",male,interior-green,English,35367,interior,5,main
227,65,Gerbils and hamsters are both small rodents therefore a gerbil would be a reasonable alternative ,features,,main,Graduated High-school,332878,1738257441256,1738257108378,"I'm sorry, we don't have hamsters. We have gerbils.",female,petAdoption-hamster,English,66741,petAdoption,1,main
227,65,These are both forms of jewellery,features,,main,Graduated High-school,332878,1738257441256,1738257108378,"I'm sorry, we don't have earrings. We have necklaces.",female,clothing-acc,English,29798,clothing,4,main
227,65,Both these sports are alternative forms of boxing as opposed to karate and pilates,features,,main,Graduated High-school,332878,1738257441256,1738257108378,"I'm sorry, we don't have boxing classes. We have kickboxing classes.",female,gym-boxing,English,77262,gymActivities,5,main
229,54,kayaks are the most similar to a canoe ,similarity,,main,Graduated College,516800,1738257481168,1738256964368,"I'm sorry, we don't have canoes. We have kayaks.",female,waterSport-muscle,English ,115395,waterSport,1,main
229,54,its another jewellery item,features,,main,Graduated College,516800,1738257481168,1738256964368,"I'm sorry, we don't have earrings. We have necklaces.",female,clothing-acc,English ,69345,clothing,2,main
229,54,its another form of boxing with a different part of body ,features,,main,Graduated College,516800,1738257481168,1738256964368,"I'm sorry, we don't have boxing classes. We have kickboxing classes.",female,gym-boxing,English ,71949,gymActivities,4,main
235,61,"Cigarettes, like cigars, are a tobacco product that can be smoked, the other items are not.",features,,main,Higher degree,582090,1738257751370,1738257169280,"I'm sorry, we don't have cigars. We have cigarettes.",female,dutyFree-smokes,English,77431,dutyFree,5,main
230,27,The two drinks are probably most similar although i dont know much about alcoholic drinks. A coffee is not alcoholic so it would not be a good similar reccomendation.,features,,main,Graduated College,623642,1738257518114,1738256894472,"I'm sorry, we don't have Sauvignon Blanc. We have Chardonnay.",female,bar-whiteWine,english urdu,69692,bar,4,main
230,27,"Pilates classes would be a form of exercise that is most similar to yoga so it would be a good reccomendation, Sumba is fast paced and kickboxing is high impact. both yoga and pilates involve strengthening and flexibility without using much eqiptment",features,,main,Graduated College,623642,1738257518114,1738256894472,"I'm sorry, we don't have yoga classes. We have a pilates class.",female,gym-yoga,english urdu,94717,gymActivities,5,main
231,38,"The youth hostel wasn't available so the agent suggested the next best option, the b&b would be the next cheapest and most suitable idea.",features,,main,Graduated High-school,470007,1738257540742,1738257070735,"I'm sorry, we don't have a bed in the youth hostel. We have a room in a cheap bed-and-breakfast.",female,bookingAgency-lowClassAccommodation,english,113175,bookingAgency,1,main
231,38,The teacher explained that there is no pottery class but suggested watercolor painting as the next best option that is available. ,similarity,,main,Graduated High-school,470007,1738257540742,1738257070735,"I'm sorry, we don't have a pottery class. We have a watercolor painting class.",female,kidsActivities-crafts,english,97579,kidsActivities,4,main
232,37,"Gingerbread is a type of biscuit, like cookies, but they taste different, so it's reasonable that she offered cookies as an alternative.",features,,main,Higher degree,249284,1738257547883,1738257298599,"I'm sorry, we don't have cookies. We have gingerbread.",male,dutyFree-sweets,English ,53265,dutyFree,1,main
232,37,"There's lot of different types of paint and painting, so while the aunt didn't have watercolour, offering oil paint is a logical alternative.",similarity,,main,Higher degree,249284,1738257547883,1738257298599,"I'm sorry, we don't have watercolor paintings. We have an oil painting.",male,interior-deco,English ,47269,interior,5,main
233,47,It is because the watercolour painting class is part of the art curriculum which is the same curriculum that pottery is part of.,similarity,,main,Higher degree,337377,1738257661732,1738257324355,"I'm sorry, we don't have a pottery class. We have a watercolor painting class.",male,kidsActivities-crafts,English,134698,kidsActivities,1,main
233,47,Because the replacement option is also wine.,similarity,,main,Higher degree,337377,1738257661732,1738257324355,"I'm sorry, we don't have Sauvignon Blanc. We have Chardonnay.",male,bar-whiteWine,English,23976,bar,2,main
233,47,"Because they are on the same subject, about the same thing.",similarity,,main,Higher degree,337377,1738257661732,1738257324355,"I'm sorry, we don't have love poems. We have books of French love letters.",male,books-romance,English,22726,books,3,main
233,47,"Because they don't have cigars, cigarettes are the nearest available substitute.",similarity,,main,Higher degree,337377,1738257661732,1738257324355,"I'm sorry, we don't have cigars. We have cigarettes.",male,dutyFree-smokes,English,40753,dutyFree,5,main
234,23,"Either Monopoly or checkers may have been suitable alternatives as they are both board games, however Monopoly may be preferable as it can be played with more players than checkers, and therefore is slightly more similar to Scrabble, although this may be context dependent.",features,,main,Higher degree,340163,1738257681042,1738257340879,"I'm sorry, we don't have Scrabble. We have Monopoly.",female,friendsActivities-boardGames,English,77356,friendsActivities,5,main
236,41,Reasonable because Netflix is something that plays movies so movies on their own is an alternative,features,,main,Graduated High-school,435522,1738257846903,1738257411381,"I'm sorry, we don't have Netflix. We have some movies.",female,friendsActivities-videoEntertainment,English,75251,friendsActivities,2,main
236,41,The man mentioned the xbox because it is another games machine that can play some games that are very similar.,features,,main,Graduated High-school,435522,1738257846903,1738257411381,"I'm sorry, we don't have a PlayStation. We have an Xbox.",female,electronics-console,English,127004,electronics,4,main
241,60,"Pepperoni contains meat, vegetarians don't eat meat, but some will eat cheese. The cheese pizza is the closest option available. Raspberry pie is nothing like a veggie pizza.",features,,main,Graduated High-school,623289,1738257972135,1738257348846,"I'm sorry, we don't have veggie pizza. We have cheese pizza.",female,cafe-pizza,English,86494,cafe,5,main
237,52,"This response considers suggesting something which is of a similar genre, rather than off topic. Romantic is the topic.",features,,main,Graduated College,311652,1738257863024,1738257551372,"I'm sorry, we don't have love poems. We have books of French love letters.",female,books-romance,English,68918,books,1,main
237,52,Youth hostels tend to be less expensive so the agent has sought t offer a similar alternative to the man.,similarity,,main,Graduated College,311652,1738257863024,1738257551372,"I'm sorry, we don't have a bed in the youth hostel. We have a room in a cheap bed-and-breakfast.",female,bookingAgency-lowClassAccommodation,English,49076,bookingAgency,4,main
246,62,Because gerbils resemble hamsters in that they are both small rodents that many people get mixed up. ,similarity,,main,Graduated High-school,656580,1738258137866,1738257481286,"I'm sorry, we don't have hamsters. We have gerbils.",other,petAdoption-hamster,English,159746,petAdoption,1,main
246,62,"Both Xbox and Playstation are games consoles and very often the same games are available on both, with minor graphics differences. The two consoles are both very popular and both would be a good alternative to the other. The MacBook and the gameboy are not close compairons.",similarity,,main,Graduated High-school,656580,1738258137866,1738257481286,"I'm sorry, we don't have a PlayStation. We have an Xbox.",other,electronics-console,English,163947,electronics,4,main
238,22,The consultant provided the woman with the closest option that is available to what she was describing.,similarity,,main,Graduated College,233283,1738257864471,1738257631188,"I'm sorry, we don't have a club event with electronic music. We have a club event with a hip hop DJ.",female,touristInfo-clubbing,English,35616,touristInfo,2,main
238,22,"PlayStation and Xbox are both gaming consoles. So, while they do not have one gaming console, the sales assistant suggests the gaming console that they have available.",similarity,,main,Graduated College,233283,1738257864471,1738257631188,"I'm sorry, we don't have a PlayStation. We have an Xbox.",female,electronics-console,English,39049,electronics,5,main
240,52,"the sales assistant's mention of the MacBook Air was a reasonable and helpful response because it offers a close alternative to the MacBook Pro, rather than confusing the customer with options that don’t fit the category (like an Xbox or desktop).",similarity,,main,Graduated High-school,261066,1738257918568,1738257657502,"I'm sorry, we don't have a MacBook Pro. We have a MacBook Air.",male,electronics-laptop,English,45816,electronics,1,main
249,57,Kayaks and canoes are very similar and operate the same way so its perfectly reasonable to summise that the canoeist would be happy with a kayak too.,features,,main,Graduated High-school,844720,1738258193935,1738257349215,"I'm sorry, we don't have canoes. We have kayaks.",male,waterSport-muscle,English,357684,waterSport,4,main
250,35,It is reasonable because tea and coffee are comparable drinks. The bar serves iced coffee which is why the bartender would mention that and not another drink.,similarity,,main,Graduated College,484913,1738258197632,1738257712719,"I'm sorry, we don't have iced tea. We have iced coffee.",female,bar-tea,English ,103481,bar,1,main
242,30,"The assistant's response is reasonable because the Playstation is a standalone games console and an Xbox is the most similar option out of the electronics that the store has in stock. A Gameboy is a handheld device and a MacBook Air is a computer/laptop, no exclusively for gaming. Therefore, it would be reasonable to offer the alternative of an Xbox as it is also a games console and many games that can be played on the Playstation, can also be played on an Xbox.",features,,main,Higher degree,566016,1738258041096,1738257475080,"I'm sorry, we don't have a PlayStation. We have an Xbox.",female,electronics-console,English,143537,electronics,2,main
242,30,"A gerbil is a reasonable response as it is similar in size and habitat to a hamster. If the person is asking for a hamster, they likely want a pet that is going to be fluffy and small, and kept in a cage. Therefore a ferret would not fit this description, nor would a golden retriever.",goals,,main,Higher degree,566016,1738258041096,1738257475080,"I'm sorry, we don't have hamsters. We have gerbils.",female,petAdoption-hamster,English,100185,petAdoption,3,main
242,30,"The hip hop DJ offers the most similar style of music to electronic music. Based on the type of dance/experience someone would be interested in if they wanted electronic music, out of the options the DJ would be suited best. A circus show has nothing to do with music and live jazz music is a very very different style altogether.",goals,,main,Higher degree,566016,1738258041096,1738257475080,"I'm sorry, we don't have a club event with electronic music. We have a club event with a hip hop DJ.",female,touristInfo-clubbing,English,109544,touristInfo,5,main
245,28,Hamsters and Gerbils are similar creatures in size and also both make good pets. I assume the father is buying the animal as a gift for their child and due to the similar nature in which you could care for both a hamster and a gerbil getting one of the latter instead would still be a similar experience. ,goals,,main,Graduated College,423480,1738258073704,1738257650224,"I'm sorry, we don't have hamsters. We have gerbils.",male,petAdoption-hamster,English,98095,petAdoption,5,main
244,64,"The agent wants to encourage the customer to rent equipment from them, and suggests a kayak instead of a canoe because they are somewhat similar.",similarity,Interesting! In the attention check question I was unsure whether you wanted the word and an explanation.,main,Higher degree,613586,1738258077482,1738257463896,"I'm sorry, we don't have canoes. We have kayaks.",female,waterSport-muscle,English,83400,waterSport,4,main
244,64,The sales assistant suggests necklaces because earings and necklaces are both forms of jewelry.,features,Interesting! In the attention check question I was unsure whether you wanted the word and an explanation.,main,Higher degree,613586,1738258077482,1738257463896,"I'm sorry, we don't have earrings. We have necklaces.",female,clothing-acc,English,47337,clothing,5,main
247,77,a lion is somewhat simmilar to a tiger. the tiger has stripes and the lion doesn;t but they are both classed as big cats,features,,main,Graduated High-school,429776,1738258157431,1738257727655,"I'm sorry, we don't have a tiger. We have a lion.",female,zoo-xl,english,98453,zoo,2,main
247,77,the aunt is still offering a plant just a different type.,similarity,,main,Graduated High-school,429776,1738258157431,1738257727655,"I'm sorry, we don't have an aloe vera plant. We have an agave plant.",female,interior-green,english,62165,interior,4,main
251,31,It makes sense for the agent to mention the water ski as it is a bit similar to jet ski. They are both water sports and maybe the customer might be interested in the water ski afterall.,features,,main,Higher degree,1291783,1738258261927,1738256970144,"I'm sorry, we don't have jet skis. We have water ski equipment.",female,waterSport-motor,English,369032,waterSport,1,main
251,31,The cashier's response is reasonable as french love letters are an alternative to love poems. French is also considered a romantic place where love is in abundance so that is also a factor ,features,,main,Higher degree,1291783,1738258261927,1738256970144,"I'm sorry, we don't have love poems. We have books of French love letters.",female,books-romance,English,86392,books,5,main
252,53,"Well, Bo gymnastics and acrobatics share similarities, but they are distinct disciplines with different focuses, techniques, and competitive structures.",similarity,,main,Graduated College,784416,1738258464630,1738257680214,"I'm sorry, we don't have a gymnastics class. We have an acrobatics class.",female,kidsActivities-sports,English,173367,kidsActivities,2,main
252,53,"Again Bo, although they may seem similar they are different in their context and this shop sells books of a particular context which doesn't include psychological thrillers. 
",similarity,,main,Graduated College,784416,1738258464630,1738257680214,"I'm sorry, we don't have psychological thrillers. We have mystery novels.",female,books-fantasy,English,79296,books,3,main
254,40,The host has offered another game for the group of friends to play. The game Monopoly is similar to Scrabble - in the sense that the friends will sit together and try to win the game. It is reasonable for the host to offer another game to play.,similarity,Interesting study - Thank you,main,Graduated College,1329058,1738258601470,1738257272412,"I'm sorry, we don't have Scrabble. We have Monopoly.",female,friendsActivities-boardGames,English,264420,friendsActivities,1,main
255,36,"Gerbils are a similar animal to hamsters, as they are from the same animal family: the rodent family. When kept as a pet hamsters and gerbils have very similar needs and care. Golden retrievers and ferrets are from different animal families and have different needs and care.",features,,main,Graduated College,744145,1738258782118,1738258037973,"I'm sorry, we don't have hamsters. We have gerbils.",female,petAdoption-hamster,English,200364,petAdoption,2,main
255,36,"Psychological thrillers and mystery novels are similar genres of book. They have similar themes of tension and lead to a discovery that is a surprise to the reader. Adventure novels are more focused on exploration and action. French love letters are also different, and will be letters to express affection to another person. ",features,,main,Graduated College,744145,1738258782118,1738258037973,"I'm sorry, we don't have psychological thrillers. We have mystery novels.",female,books-fantasy,English,194560,books,4,main
255,36,Both iguanas and chameleons are from the reptile family and of similar size and shape. Turtles are aquatic reptiles that are larger and have a hard shell which chameleons and iguanas do not have. Lions are from the mammal family and have fur.,features,,main,Graduated College,744145,1738258782118,1738258037973,"I'm sorry, we don't have a chameleon. We have iguanas.",female,zoo-reptiles,English,110312,zoo,5,main
257,41,"Kayaks are the most similar to canoes out of all of the options. Unlike teh other two options, you paddle in both canoes and kayaks. In addition, they are similarly sized boats. ",features,,main,Graduated College,489965,1738259241022,1738258751057,"I'm sorry, we don't have canoes. We have kayaks.",other,waterSport-muscle,English,83635,waterSport,2,main
257,41,"Netflix has movies. Xbox is for playing video games and Monopoly is a board game. While it does not include tv series like Netflix, movies is the option that is most closely related to what you would find on Netflix. ",features,,main,Graduated College,489965,1738259241022,1738258751057,"I'm sorry, we don't have Netflix. We have some movies.",other,friendsActivities-videoEntertainment,English,111795,friendsActivities,4,main
257,41,"Iguanas are lizards just like chameleons.  While turtles are also reptiles like Iguanas and chameleons, the iguana is the most closely related to chameleons. ",similarity,,main,Graduated College,489965,1738259241022,1738258751057,"I'm sorry, we don't have a chameleon. We have iguanas.",other,zoo-reptiles,English,92844,zoo,5,main
259,49,Because that is the next best option available to the customer at the time. ,similarity,,main,Graduated High-school,335728,1738260891010,1738260555282,"I'm sorry, we don't have a single room in a five-star hotel. We have a suite in a four-star hotel.",female,bookingAgency-highClassAccommodation,English,64998,bookingAgency,1,main
259,49,"She mentions having an oil painting, as the next best option to watercolour",similarity,,main,Graduated High-school,335728,1738260891010,1738260555282,"I'm sorry, we don't have watercolor paintings. We have an oil painting.",female,interior-deco,English,44695,interior,3,main
259,49,"A gerbil is a similar pet as a hamster, so they offer this option instead",similarity,,main,Graduated High-school,335728,1738260891010,1738260555282,"I'm sorry, we don't have hamsters. We have gerbils.",female,petAdoption-hamster,English,38930,petAdoption,4,main
259,49,A club event with a hip hop Dj may appeal in the same way as a club event with electronic music,similarity,,main,Graduated High-school,335728,1738260891010,1738260555282,"I'm sorry, we don't have a club event with electronic music. We have a club event with a hip hop DJ.",female,touristInfo-clubbing,English,46759,touristInfo,5,main
166,32,Sculpture ,,,sculpture,Higher degree,304059,1736121693839,1736121389780,NA,female,art-drawing,English,21574,art,1,main
167,31,teacher,,,teacher,Higher degree,445548,1736121862451,1736121416903,NA,male,jobCenter-engineer,English,34457,jobCenter,5,main
168,61,sculpture ,,,sculpture,Graduated College,340454,1736121861173,1736121520719,NA,female,art-drawing,English ,29847,art,4,main
169,40,Teacher,,,teacher,Graduated College,457768,1736121908295,1736121450527,NA,female,jobCenter-office,English,36583,jobCenter,4,main
170,19,"""No sir, we do not have an open accountant job. We do have other positions such as a manager assistant or a bookkeeper, would you be interested in any of these?"" teacher",,:D,teacher,Did not graduate High-school,548189,1736121930993,1736121382804,NA,female,jobCenter-office,english,80590,jobCenter,4,main
171,38,motorcycle,,thank you,motorcycle,Higher degree,565126,1736120707660,1736120142534,NA,female,carRental-fun,english,44867,carRental,3,main
172,50,sculpture,,,sculpture,Graduated College,615232,1736122010984,1736121395752,NA,other,art-drawing,English ,55505,art,5,main
174,19,sculpture ,,,sculpture,Graduated College,644491,1736123053399,1736122408908,NA,female,art-drawing,"English, Creole, French",21058,art,3,main
175,68,Sculpture ,,Very interesting premise.,sculpture,Graduated High-school,2396466,1736123861623,1736121465157,NA,female,art-painting,English ,49411,art,1,main
176,22,"motorcycle

The employee would likely respond by saying something like, “Sorry, we don’t have a Porsche, but we have a Ferrari, a BMW convertible, and a delivery truck.” This makes sense because the young man asked about a specific car, but since it’s unavailable, the employee offers other available options that might interest him.",,,motorcycle,Graduated High-school,497510,1736125730109,1736125232599,NA,male,carRental-fun,English ,63888,carRental,3,main
221,21,sculpture,,,sculpture,Graduated High-school,288828,1738256948385,1738256659557,NA,female,art-painting,english,27772,art,2,main
222,38,London,,,London,Higher degree,279824,1738257062063,1738256782239,NA,female,airport-usa,English,17232,airport,4,main
223,40,sculpture,,,sculpture,Graduated High-school,447325,1738257063354,1738256616029,NA,male,art-drawing,English ,24104,art,4,main
224,18,teacher,,,teacher,Higher degree,303956,1738257122311,1738256818355,NA,female,jobCenter-engineer,English,12505,jobCenter,4,main
225,32,Sculpture ,,,sculpture,Higher degree,375086,1738257212981,1738256837895,NA,female,art-painting,English ,30806,art,5,main
226,69,motorcycle,,,motorcycle,Higher degree,215875,1738257271688,1738257055813,NA,male,carRental-fun,English,26157,carRental,1,main
227,65,Teacher,,,teacher,Graduated High-school,332878,1738257441256,1738257108378,NA,female,jobCenter-engineer,English,14875,jobCenter,3,main
228,27,London,,,London,Graduated College,266496,1738257476411,1738257209915,NA,female,airport-usa,english,12848,airport,1,main
229,54,classic,,,classic,Graduated College,516800,1738257481168,1738256964368,NA,female,music-softrock,English ,29596,music,5,main
235,61,motorcycle,,,motorcycle,Higher degree,582090,1738257751370,1738257169280,NA,female,carRental-fun,English,16790,carRental,2,main
230,27,London,,,London,Graduated College,623642,1738257518114,1738256894472,NA,female,airport-usa,english urdu,14761,airport,3,main
231,38,sculpture,,,sculpture,Graduated High-school,470007,1738257540742,1738257070735,NA,female,art-painting,english,24175,art,3,main
232,37,London.,,,London,Higher degree,249284,1738257547883,1738257298599,NA,male,airport-europe-UPDATED,English ,13756,airport,2,main
233,47,classic,,,classic,Higher degree,337377,1738257661732,1738257324355,NA,male,music-hardrock,English,16388,music,4,main
234,23,classic,,,classic,Higher degree,340163,1738257681042,1738257340879,NA,female,music-hardrock,English,10905,music,4,main
236,41,teacher,,,teacher,Graduated High-school,435522,1738257846903,1738257411381,NA,female,jobCenter-engineer,English,20568,jobCenter,1,main
241,60,sculpture,,,sculpture,Graduated High-school,623289,1738257972135,1738257348846,NA,female,art-drawing,English,13672,art,1,main
237,52,classic,,,classic,Graduated College,311652,1738257863024,1738257551372,NA,female,music-hardrock,English,38721,music,3,main
246,62,teacher,,,teacher,Graduated High-school,656580,1738258137866,1738257481286,NA,other,jobCenter-engineer,English,27529,jobCenter,5,main
238,22,teacher,,,teacher,Graduated College,233283,1738257864471,1738257631188,NA,female,jobCenter-engineer,English,10768,jobCenter,4,main
239,24,sculpture,,,sculpture,Graduated College,555793,1738257891040,1738257335247,NA,male,art-drawing,English,14503,art,2,main
240,52,sculpture,,,sculpture,Graduated High-school,261066,1738257918568,1738257657502,NA,male,art-painting,English,43824,art,3,main
249,57,London,,,London,Graduated High-school,844720,1738258193935,1738257349215,NA,male,airport-europe-UPDATED,English,21064,airport,3,main
250,35,Motorcycle,,,motorcycle,Graduated College,484913,1738258197632,1738257712719,NA,female,carRental-moving,English ,16741,carRental,3,main
242,30,motorcycle,,,motorcycle,Higher degree,566016,1738258041096,1738257475080,NA,female,carRental-moving,English,18394,carRental,4,main
245,28,motorcycle,,,motorcycle,Graduated College,423480,1738258073704,1738257650224,NA,male,carRental-moving,English,15633,carRental,1,main
248,35,teacher,,,teacher,Graduated High-school,550371,1738258173585,1738257623214,NA,female,jobCenter-office,english,51186,jobCenter,3,main
243,48,teacher,,,teacher,Higher degree,384417,1738258049521,1738257665104,NA,male,jobCenter-engineer,English,19334,jobCenter,1,main
244,64,classic,,Interesting! In the attention check question I was unsure whether you wanted the word and an explanation.,classic,Higher degree,613586,1738258077482,1738257463896,NA,female,music-softrock,English,38640,music,2,main
247,77,sculpture,,,sculpture,Graduated High-school,429776,1738258157431,1738257727655,NA,female,art-painting,english,24156,art,5,main
251,31,classic,,,classic,Higher degree,1291783,1738258261927,1738256970144,NA,female,music-hardrock,English,22773,music,2,main
252,53,Sculpture,,,sculpture,Graduated College,784416,1738258464630,1738257680214,NA,female,art-drawing,English,85291,art,1,main
253,35,teacher,,,teacher,Higher degree,350059,1738258567709,1738258217650,NA,male,jobCenter-engineer,English,76095,jobCenter,5,main
254,40,London,,Interesting study - Thank you,London,Graduated College,1329058,1738258601470,1738257272412,NA,female,airport-usa,English,15155,airport,2,main
255,36,London,,,London,Graduated College,744145,1738258782118,1738258037973,NA,female,airport-europe-UPDATED,English,21481,airport,1,main
256,61,classic,,,classic,Graduated High-school,1222653,1738258898499,1738257675846,NA,male,music-softrock,English,35825,music,5,main
257,41,London,,,London,Graduated College,489965,1738259241022,1738258751057,NA,other,airport-europe-UPDATED,English,17474,airport,3,main
258,67,London,,,London,Did not graduate High-school,1074220,1738260076874,1738259002654,NA,male,airport-usa,British,43215,airport,3,main
259,49,classic,,,classic,Graduated High-school,335728,1738260891010,1738260555282,NA,female,music-softrock,English,17950,music,2,main
260,53,classic,,Thanks!,classic,Graduated College,855621,1738261729845,1738260874224,NA,male,music-hardrock,English,30417,music,5,main